response	response_time	trial_ISI	trial_shape
space	1185	2500	red_square
None	0	1500	yellow_circle
space	552	1500	red_square
None	0	1500	blue_star
None	0	1000	red_circle
None	0	2000	red_circle
None	0	2500	red_star
None	0	1000	yellow_triangle
None	0	2000	yellow_square
None	0	2500	yellow_triangle
None	0	1000	yellow_square
None	0	1500	yellow_circle
None	0	2500	green_circle
None	0	2500	red_star
None	0	2500	yellow_circle
space	509	2500	red_square
None	0	2500	blue_square
None	0	1000	yellow_square
None	0	1500	yellow_square
None	0	2000	blue_triangle
space	549	1000	red_square
None	0	1500	green_circle
None	0	1000	blue_triangle
None	0	1000	red_circle
None	0	2000	green_triangle
space	556	1000	red_square
None	0	1500	red_circle
None	0	2500	green_star
space	546	1500	red_square
None	0	1000	green_triangle
space	635	1000	red_square
space	594	1500	red_square
space	443	2500	red_square
space	481	1000	red_square
space	425	1500	red_square
None	0	2500	green_triangle
None	0	2000	green_square
space	543	2000	red_square
space	574	1000	red_square
space	598	1500	red_square
None	0	2000	blue_triangle
None	0	1500	blue_star
space	633	2000	red_square
None	0	1000	red_triangle
None	0	1500	blue_square
None	0	1500	red_star
None	0	1000	red_triangle
None	0	1500	blue_circle
space	538	1500	red_square
None	0	2000	red_circle
None	0	1000	blue_circle
None	0	1500	yellow_circle
None	0	2500	yellow_circle
None	0	2500	yellow_circle
None	0	2000	green_square
None	0	1000	red_circle
None	0	2000	yellow_triangle
None	0	2500	yellow_triangle
None	0	2000	yellow_star
space	590	2500	red_square
None	0	2000	blue_circle
None	0	1000	green_circle
None	0	2500	green_star
None	0	1500	red_triangle
space	534	1500	red_square
None	0	2500	blue_square
None	0	1000	red_star
None	0	2500	red_triangle
space	529	1000	red_square
None	0	2500	blue_square
space	498	2000	red_square
None	0	1000	blue_triangle
None	0	2000	red_triangle
space	521	2000	red_square
space	528	1500	red_square
space	290	1500	red_square
space	562	2500	red_square
space	500	1500	red_square
space	558	1500	red_square
space	431	2500	red_square
None	0	2500	green_triangle
space	646	1000	red_square
None	0	1500	red_circle
None	0	1500	yellow_square
space	552	2000	red_square
space	999	1000	red_square
space	871	1000	red_square
space	742	1500	red_square
None	0	2000	red_star
None	0	2000	yellow_star
None	0	1000	blue_circle
None	0	1000	yellow_square
space	521	2000	red_square
None	0	2500	yellow_star
space	546	2500	red_square
None	0	2500	green_circle
space	533	2500	red_square
space	463	1000	red_square
None	0	2000	red_triangle
space	534	1500	red_square
None	0	2500	green_triangle
None	0	2500	green_square
None	0	2000	blue_star
None	0	1500	yellow_star
None	0	2500	red_triangle
None	0	1000	blue_star
None	0	2500	yellow_triangle
None	0	1500	red_triangle
None	0	1500	blue_triangle
space	532	1500	red_square
space	494	1000	red_square
None	0	2000	red_triangle
None	0	1000	green_star
None	0	2000	yellow_triangle
None	0	1500	blue_circle
None	0	2500	green_square
None	0	2000	blue_star
None	0	2500	red_triangle
None	0	1000	yellow_star
None	0	1000	red_triangle
None	0	2000	yellow_circle
None	0	2500	green_triangle
space	551	1000	red_square
space	487	2500	red_square
None	0	1500	red_star
space	490	2000	red_square
None	0	1500	blue_square
space	523	1000	red_square
space	522	1500	red_square
space	491	2000	red_square
None	0	2000	blue_triangle
None	0	2500	yellow_star
space	620	2500	red_square
space	581	2000	red_square
None	0	1000	yellow_square
None	0	1000	blue_star
None	0	1500	blue_star
space	669	2500	red_square
None	0	2500	green_circle
None	0	1500	red_star
None	0	1500	yellow_square
space	735	2500	red_square
None	0	1500	blue_circle
space	497	1000	red_square
None	0	2000	green_square
space	480	2000	red_square
None	0	1000	red_star
None	0	1000	yellow_square
None	0	1500	red_star
None	0	1000	blue_square
None	0	1000	yellow_star
None	0	2500	blue_star
None	0	2500	blue_square
None	0	1500	blue_star
None	0	2500	green_triangle
None	0	2000	blue_square
None	0	1000	green_square
None	0	2500	green_triangle
None	0	2000	yellow_square
None	0	1000	green_square
None	0	2500	yellow_triangle
space	589	2000	red_square
None	0	2000	yellow_triangle
None	0	2500	yellow_square
space	546	2000	red_circle
None	0	1000	green_square
None	0	1500	green_square
None	0	1500	red_star
None	0	1000	red_star
None	0	1500	green_square
None	0	2000	yellow_circle
None	0	2500	red_triangle
None	0	2000	green_star
space	605	1500	red_square
None	0	2000	blue_star
None	0	2000	blue_star
space	669	1000	red_square
None	0	1500	red_triangle
None	0	2500	red_triangle
space	551	2000	red_square
None	0	1500	blue_triangle
None	0	1500	blue_square
None	0	1000	green_circle
None	0	1000	green_star
space	632	1500	red_square
space	601	1500	red_square
None	0	2000	yellow_triangle
None	0	2000	blue_triangle
None	0	1000	red_circle
None	0	1000	yellow_square
None	0	2000	green_star
None	0	2000	yellow_star
None	0	1000	yellow_square
None	0	2000	red_circle
None	0	2000	green_square
None	0	1500	yellow_circle
None	0	2500	blue_circle
None	0	1000	green_star
None	0	1000	blue_circle
None	0	2000	green_triangle
space	587	1500	red_square
None	0	2500	blue_square
None	0	1500	green_circle
None	0	1500	green_triangle
None	0	1500	yellow_star
space	545	2000	red_square
None	0	1000	yellow_circle
None	0	2000	green_circle
None	0	1500	yellow_circle
None	0	2000	green_circle
space	697	2000	red_square
space	617	1000	red_square
None	0	2500	red_circle
space	633	2500	red_square
None	0	2000	blue_triangle
None	0	1000	green_star
None	0	2500	red_triangle
None	0	1500	blue_star
None	0	2500	green_circle
space	622	1500	red_square
None	0	2500	red_star
None	0	1000	red_circle
space	536	2000	red_square
None	0	1000	blue_star
None	0	2500	yellow_star
space	560	1000	red_square
None	0	1500	yellow_triangle
None	0	2500	red_circle
space	554	1000	red_square
None	0	2000	yellow_triangle
None	0	2000	blue_square
None	0	2500	blue_circle
space	490	1500	red_square
None	0	2500	green_square
None	0	1500	blue_square
space	494	1000	red_square
None	0	1500	green_circle
None	0	1500	blue_circle
None	0	2000	red_star
space	616	1000	red_square
space	559	2000	red_square
None	0	1500	yellow_star
None	0	1000	red_triangle
None	0	1000	green_square
space	495	1500	red_square
space	600	2500	red_square
space	593	1000	red_square
None	0	1000	red_circle
space	648	1500	red_square
space	577	2500	red_square
None	0	1500	yellow_square
None	0	1000	green_circle
None	0	1500	yellow_triangle
space	909	2500	red_square
space	662	1500	red_square
space	551	1000	red_square
None	0	2500	blue_square
None	0	1000	blue_triangle
None	0	2500	red_star
space	585	1000	red_square
None	0	2000	green_triangle
None	0	2000	yellow_circle
None	0	2500	green_star
None	0	2000	yellow_square
space	461	2000	red_square
space	565	2500	red_square
None	0	2500	red_star
None	0	1500	blue_square
None	0	1000	blue_circle
None	0	2000	green_square
space	636	2000	red_square
space	579	1500	red_square
space	492	2000	red_square
None	0	2500	green_square
space	582	2000	red_square
space	525	1000	red_square
None	0	2000	red_circle
None	0	2500	blue_triangle
space	490	1000	red_square
None	0	2000	blue_square
space	481	2500	red_square
space	578	2500	red_square
None	0	2000	green_square
None	0	2500	red_star
None	0	2500	blue_square
None	0	2000	green_square
space	594	1500	red_square
None	0	1500	red_star
None	0	2000	red_circle
space	720	2000	red_square
None	0	2000	green_square
None	0	2500	blue_square
None	0	1500	yellow_square
space	542	1500	red_square
None	0	2000	blue_triangle
None	0	2000	red_star
space	511	1000	red_square
None	0	1500	green_triangle
None	0	1000	green_triangle
None	0	2500	blue_square
None	0	2500	blue_triangle
None	0	1500	red_star
space	551	1000	red_square
space	574	1000	red_square
None	0	2500	green_star
None	0	1000	yellow_star
None	0	2500	red_circle
None	0	2000	yellow_square
None	0	2500	blue_square
None	0	2000	yellow_square
None	0	1000	green_circle
space	529	1000	red_square
None	0	2000	blue_circle
None	0	1500	red_triangle
None	0	2500	green_star
None	0	1500	yellow_square
None	0	1500	green_star
None	0	2500	red_triangle
None	0	1000	red_circle
None	0	2000	red_circle
