response	response_time	trial_ISI	trial_shape
space	493	1500	red_square
None	0	1500	green_triangle
None	0	1000	red_circle
space	392	2000	red_square
None	0	1000	blue_triangle
None	0	1500	yellow_circle
None	0	2000	red_circle
None	0	2500	green_square
None	0	2500	green_triangle
space	399	1500	red_square
None	0	1000	blue_circle
None	0	2500	red_circle
None	0	2500	red_triangle
None	0	1000	red_triangle
None	0	2500	red_circle
None	0	1000	green_circle
space	395	1000	red_square
space	563	1500	red_square
None	0	2500	blue_square
space	434	2000	red_square
None	0	1500	yellow_circle
None	0	2500	yellow_circle
space	436	2000	red_square
None	0	2000	yellow_square
space	451	1000	red_square
None	0	1000	blue_triangle
None	0	1000	red_circle
None	0	1500	red_circle
None	0	2500	yellow_square
None	0	1500	red_circle
None	0	2500	green_star
space	484	2500	red_square
space	441	1500	red_square
None	0	1000	red_triangle
None	0	2500	blue_circle
space	467	2500	red_square
None	0	2000	green_square
None	0	1500	blue_square
space	462	2500	red_square
space	552	2000	red_square
None	0	1500	green_circle
space	553	2000	red_square
None	0	2000	blue_circle
None	0	1500	blue_square
None	0	1000	red_circle
None	0	2000	red_triangle
space	423	1000	red_square
None	0	2000	blue_triangle
space	430	2000	red_square
space	574	2500	red_square
space	439	1000	red_square
space	534	1500	red_square
None	0	1500	yellow_triangle
None	0	2500	yellow_star
space	463	2000	red_square
None	0	1500	red_star
None	0	1500	yellow_triangle
space	433	2500	red_square
None	0	2500	green_circle
None	0	2000	blue_square
space	424	2000	red_square
None	0	1000	green_square
space	479	2000	red_square
None	0	1500	green_square
None	0	2500	green_circle
None	0	2000	green_star
space	405	1000	red_square
space	588	2500	red_square
None	0	1500	blue_star
None	0	2000	red_star
space	478	1500	red_square
space	484	1500	red_square
space	389	1000	red_square
None	0	1000	red_circle
space	396	1500	red_square
None	0	1000	red_triangle
None	0	2000	red_star
None	0	1500	blue_circle
space	533	2000	red_square
None	0	1000	red_circle
space	500	1000	red_square
space	475	2500	red_square
None	0	2000	blue_star
space	428	1500	red_square
space	422	2000	red_square
None	0	1000	green_triangle
None	0	1500	red_triangle
space	398	2500	red_square
None	0	2000	blue_circle
None	0	1000	yellow_triangle
None	0	2500	blue_square
None	0	1500	blue_star
None	0	2500	yellow_triangle
None	0	1000	red_triangle
None	0	2500	yellow_square
None	0	2500	red_circle
None	0	2000	yellow_square
None	0	2500	blue_square
space	455	2500	red_square
None	0	2500	yellow_square
None	0	1500	blue_square
None	0	2500	yellow_square
space	453	2000	red_square
None	0	1500	blue_circle
None	0	2000	green_square
space	438	2000	red_square
None	0	1000	red_circle
None	0	2500	yellow_triangle
space	422	2500	red_square
None	0	2500	blue_star
space	449	2500	red_square
space	567	2500	red_square
None	0	2000	yellow_triangle
None	0	1500	blue_star
None	0	1000	green_circle
space	541	1500	red_square
space	518	1000	red_square
None	0	1000	blue_triangle
None	0	1000	blue_circle
None	0	2000	red_star
space	412	2000	red_square
None	0	1500	yellow_star
space	405	2000	red_square
None	0	2000	blue_square
None	0	1500	yellow_star
space	405	2000	red_square
None	0	1000	blue_square
None	0	1500	green_circle
None	0	2000	blue_triangle
None	0	1000	red_triangle
space	412	1000	red_square
None	0	2000	blue_square
None	0	2500	green_circle
space	468	1000	red_square
None	0	1000	red_circle
space	627	1500	red_square
None	0	2000	green_circle
space	436	1000	red_square
None	0	1500	blue_square
None	0	2500	red_star
None	0	2000	blue_star
None	0	2500	green_star
None	0	1000	blue_triangle
space	442	2500	red_square
None	0	2500	green_star
None	0	1000	green_circle
space	490	1000	red_square
None	0	1000	blue_triangle
None	0	1500	yellow_circle
space	509	2000	red_square
space	413	1000	red_square
None	0	2500	red_star
space	363	2500	red_square
None	0	1500	yellow_triangle
None	0	2500	green_triangle
space	366	1000	red_square
None	0	2000	blue_triangle
None	0	2000	red_star
None	0	2000	green_triangle
None	0	1000	yellow_triangle
None	0	1000	green_circle
None	0	2000	green_star
None	0	1500	red_triangle
None	0	2000	yellow_square
None	0	2500	green_square
None	0	2500	yellow_star
None	0	1000	yellow_square
None	0	1000	red_circle
None	0	1500	blue_square
None	0	1500	yellow_square
None	0	2000	red_star
None	0	2500	yellow_circle
None	0	1500	green_star
None	0	1000	red_star
None	0	2500	yellow_star
None	0	1500	green_star
space	425	1500	red_square
None	0	2500	yellow_square
space	571	2000	red_square
None	0	1000	blue_star
None	0	2500	green_triangle
None	0	2000	red_triangle
None	0	2000	red_star
None	0	2500	blue_star
None	0	1000	yellow_star
None	0	2000	yellow_square
None	0	2000	yellow_square
space	446	2500	red_square
space	551	2000	red_square
None	0	1000	green_square
None	0	2000	red_star
None	0	1500	green_square
None	0	2500	green_square
space	433	2000	red_square
space	504	1500	red_square
None	0	1000	red_triangle
space	481	1000	red_square
None	0	1000	green_square
space	504	1000	red_square
space	487	1000	red_square
None	0	1500	green_triangle
None	0	2000	green_triangle
space	475	2000	red_square
None	0	2500	green_square
space	364	2000	red_square
space	444	1000	red_square
None	0	1500	yellow_triangle
space	497	1500	red_square
None	0	2000	red_star
space	441	2500	red_square
None	0	2500	yellow_circle
None	0	1500	yellow_circle
None	0	2500	red_star
None	0	2500	yellow_square
space	477	1500	red_square
None	0	1500	blue_circle
space	511	2000	red_square
None	0	2500	yellow_star
None	0	2000	yellow_square
space	449	2000	red_square
None	0	1500	blue_square
space	513	2500	red_square
None	0	1000	green_triangle
None	0	1000	green_star
None	0	2000	blue_square
space	449	2000	red_square
None	0	1500	blue_square
None	0	2000	blue_square
None	0	1000	yellow_square
None	0	1500	yellow_triangle
None	0	2000	green_triangle
None	0	1000	red_triangle
None	0	2500	red_circle
None	0	2000	yellow_square
space	447	2500	red_square
space	536	2500	red_square
space	413	1000	red_square
None	0	1000	red_star
None	0	1500	green_triangle
None	0	1500	blue_triangle
space	582	2500	red_square
None	0	1500	red_star
space	457	1000	red_square
None	0	1500	blue_circle
None	0	1000	green_circle
None	0	1500	blue_circle
None	0	2500	red_circle
None	0	2000	red_triangle
space	1211	1500	red_square
None	0	1000	red_star
None	0	1000	yellow_star
None	0	1000	red_triangle
space	495	1500	red_square
space	432	1000	red_square
None	0	1000	green_circle
space	455	2000	red_square
None	0	2500	red_circle
None	0	2500	blue_circle
None	0	1500	green_star
None	0	2000	green_star
None	0	2500	blue_star
None	0	2000	red_circle
None	0	2500	blue_star
None	0	2500	green_square
None	0	2000	green_square
space	402	1500	red_square
None	0	1500	yellow_square
space	445	2000	red_square
space	412	2500	red_square
None	0	1500	yellow_circle
None	0	1500	red_star
None	0	1000	green_square
None	0	1000	green_triangle
space	475	2000	red_square
None	0	2500	blue_square
None	0	2000	red_triangle
None	0	1500	red_star
None	0	2500	yellow_star
None	0	2000	red_triangle
None	0	1000	blue_star
None	0	1000	green_star
None	0	2000	blue_triangle
None	0	2000	yellow_circle
space	548	1500	red_square
None	0	2500	yellow_triangle
None	0	1000	yellow_square
None	0	2000	green_square
None	0	2500	blue_triangle
None	0	1500	blue_star
None	0	2000	yellow_triangle
None	0	2500	green_square
None	0	2000	blue_square
None	0	1500	blue_star
None	0	2500	yellow_circle
space	528	1000	red_square
None	0	1500	blue_triangle
None	0	1000	yellow_circle
None	0	1000	green_triangle
None	0	1000	red_star
None	0	1500	blue_triangle
None	0	1500	yellow_circle
space	506	1000	red_square
None	0	1500	red_triangle
None	0	1500	green_circle
space	472	1000	red_square
None	0	2000	green_square
space	431	2500	red_square
None	0	2000	red_circle
space	440	1500	red_square
None	0	1500	green_star
None	0	2500	yellow_star
None	0	1000	yellow_star
space	516	2500	red_square
None	0	1000	green_square
None	0	1500	blue_circle
space	422	1500	red_square
None	0	2500	yellow_square
None	0	1500	yellow_star
None	0	2500	blue_square
None	0	1500	red_triangle
