response	response_time	trial_ISI	trial_shape
space	466	2000	red_square
None	0	1000	yellow_star
None	0	1500	blue_star
None	0	2500	green_triangle
None	0	2500	red_triangle
None	0	1500	red_circle
space	391	2500	red_square
space	732	2500	red_square
None	0	2000	blue_triangle
None	0	2000	green_square
space	337	1000	red_square
space	545	2000	red_square
None	0	2000	yellow_triangle
space	432	1500	red_square
space	513	2500	red_square
None	0	2000	green_square
space	322	1000	red_square
space	409	2000	red_square
None	0	1000	blue_circle
None	0	1000	yellow_square
space	424	2500	red_square
None	0	1000	red_star
None	0	2500	green_star
None	0	2000	blue_star
None	0	1000	red_star
space	353	2000	red_square
None	0	2000	blue_circle
space	424	1500	red_square
space	337	2000	red_square
None	0	1000	green_triangle
space	472	2500	red_square
None	0	1000	green_triangle
None	0	1000	blue_star
None	0	2500	blue_triangle
None	0	2000	blue_triangle
space	317	1500	red_square
space	559	2500	red_square
None	0	2000	green_star
None	0	1000	green_circle
space	359	2000	red_square
None	0	1000	yellow_triangle
space	414	2000	red_square
space	405	1500	red_square
None	0	2000	green_triangle
None	0	2500	red_triangle
space	392	1500	red_square
None	0	2500	red_star
None	0	2000	red_circle
space	490	2000	red_square
space	449	2000	red_square
space	537	1000	red_square
None	0	2000	blue_square
None	0	1000	green_square
None	0	1000	green_triangle
space	390	1000	red_square
None	0	2500	blue_square
space	368	1000	red_square
None	0	2500	yellow_circle
None	0	1500	blue_star
None	0	2000	green_circle
None	0	2500	red_circle
space	259	2000	red_square
None	0	1500	yellow_square
None	0	1000	red_triangle
None	0	1500	red_circle
space	493	1500	red_square
None	0	1500	blue_circle
None	0	2500	red_star
None	0	1500	green_triangle
None	0	1500	green_square
None	0	2000	green_circle
None	0	2000	blue_square
space	379	1000	red_square
None	0	1500	blue_triangle
None	0	1500	blue_triangle
None	0	2500	blue_star
None	0	2500	blue_square
space	352	2000	red_square
None	0	2500	green_circle
None	0	2000	blue_square
None	0	1000	yellow_square
None	0	2000	yellow_square
None	0	2500	blue_star
None	0	1000	blue_square
None	0	1000	green_circle
None	0	1500	green_circle
space	377	2500	red_square
None	0	2000	blue_star
None	0	2000	green_triangle
space	393	1000	red_square
None	0	2000	blue_circle
None	0	1500	blue_triangle
None	0	2500	blue_circle
space	476	1500	red_square
None	0	2000	blue_square
None	0	2500	red_triangle
None	0	1000	yellow_circle
space	545	2500	red_triangle
space	435	1000	red_square
None	0	2000	red_triangle
None	0	1000	red_circle
None	0	1000	yellow_triangle
space	457	1000	red_square
None	0	2500	red_circle
None	0	1000	blue_triangle
None	0	2500	yellow_triangle
None	0	1500	yellow_star
None	0	2000	red_star
None	0	1000	red_circle
None	0	2500	blue_star
None	0	2500	green_triangle
None	0	1000	blue_square
space	397	1500	red_square
None	0	1000	red_triangle
None	0	1500	blue_triangle
None	0	2500	green_square
space	349	1000	red_square
None	0	1500	red_triangle
space	446	2000	red_square
None	0	2500	green_triangle
None	0	1000	red_triangle
space	382	1000	red_square
None	0	2500	yellow_triangle
space	387	1500	red_square
space	556	1500	red_square
None	0	2500	blue_square
None	0	2500	yellow_triangle
space	361	2500	red_square
None	0	2000	yellow_star
None	0	2000	yellow_star
None	0	1000	yellow_square
None	0	2500	yellow_square
None	0	1000	red_star
None	0	1500	yellow_square
None	0	2000	yellow_circle
None	0	2000	blue_square
None	0	1500	red_star
space	383	2500	red_square
None	0	2500	green_star
space	407	1000	red_square
None	0	1000	blue_circle
space	573	2500	red_square
None	0	1500	yellow_square
None	0	1000	yellow_triangle
None	0	2000	yellow_star
None	0	2000	yellow_square
space	327	1500	red_square
None	0	1500	green_square
None	0	1500	blue_square
None	0	1500	green_circle
space	332	1000	red_square
None	0	1000	red_star
None	0	2000	yellow_square
None	0	2500	red_circle
None	0	1500	red_triangle
None	0	1000	blue_triangle
None	0	1500	yellow_star
None	0	1000	green_circle
None	0	1000	red_triangle
None	0	2500	yellow_circle
None	0	2500	blue_star
None	0	2000	red_star
None	0	1500	yellow_square
None	0	1000	red_star
space	396	1000	red_square
None	0	1000	green_star
None	0	2000	red_circle
None	0	2500	yellow_triangle
None	0	2500	blue_square
None	0	1000	blue_star
None	0	1500	red_circle
None	0	1000	green_square
None	0	2000	red_circle
None	0	2000	blue_square
None	0	1500	yellow_square
space	445	2500	red_square
space	467	1000	red_square
None	0	1000	yellow_square
None	0	2000	yellow_circle
space	521	1500	red_square
space	434	1500	red_square
space	316	2000	red_square
None	0	2500	green_circle
None	0	2500	green_star
None	0	1500	blue_triangle
None	0	2000	yellow_triangle
space	387	2500	red_star
None	0	1500	yellow_triangle
None	0	2500	red_star
None	0	2000	red_triangle
None	0	2500	blue_circle
None	0	1000	green_triangle
None	0	2000	blue_square
None	0	1000	blue_star
None	0	1500	green_star
None	0	2500	blue_square
None	0	1500	blue_circle
None	0	2000	green_star
space	479	1500	red_square
space	408	1500	red_square
space	314	1500	red_square
None	0	2500	green_square
None	0	1000	red_circle
space	544	2500	red_square
space	369	1500	red_square
None	0	2000	yellow_square
None	0	1500	blue_square
None	0	1500	blue_star
None	0	1000	green_circle
None	0	1500	red_circle
space	426	1500	red_square
None	0	1500	green_square
space	420	1000	red_square
None	0	1000	red_triangle
None	0	1500	red_circle
None	0	2500	blue_circle
None	0	2000	yellow_star
space	382	2000	red_square
None	0	1000	yellow_circle
None	0	2500	green_star
None	0	1500	yellow_star
space	403	2000	red_square
None	0	2500	red_star
space	445	2500	red_square
None	0	2500	green_triangle
None	0	1500	red_circle
None	0	1500	red_star
space	358	2500	red_square
None	0	2000	green_star
space	351	2500	red_square
None	0	2000	yellow_star
None	0	2000	green_square
space	516	2500	red_square
None	0	1000	red_star
space	537	2000	red_square
None	0	2500	red_star
space	394	1000	red_square
None	0	2000	yellow_star
space	409	1000	red_square
None	0	2500	green_triangle
space	346	2500	red_square
None	0	2000	green_square
space	403	2500	red_square
None	0	2000	blue_triangle
None	0	2000	red_triangle
None	0	2000	green_square
space	371	1500	red_square
space	473	2500	red_square
None	0	2500	blue_triangle
None	0	2000	red_triangle
None	0	1500	green_star
None	0	1000	yellow_circle
None	0	1500	red_triangle
space	321	2000	red_square
space	785	1500	red_square
None	0	1000	green_circle
None	0	1000	red_star
None	0	1500	green_square
None	0	1000	yellow_triangle
None	0	1500	red_circle
None	0	1000	blue_circle
None	0	2000	green_star
space	417	2500	red_square
space	379	2500	red_square
None	0	2000	blue_circle
None	0	1000	yellow_square
None	0	1500	yellow_triangle
space	457	2500	red_square
space	402	2500	red_square
space	364	1500	red_square
space	373	1000	red_square
None	0	1500	red_star
space	422	1500	red_square
None	0	2500	yellow_circle
space	273	1500	red_square
None	0	1500	green_circle
space	315	2500	red_square
space	501	1000	red_square
None	0	1000	green_circle
None	0	1000	green_square
None	0	1500	yellow_square
space	416	2000	red_square
None	0	1000	yellow_star
None	0	1500	red_circle
None	0	2500	yellow_square
None	0	2000	green_square
space	393	2000	red_triangle
None	0	1000	yellow_circle
space	480	2000	red_square
space	344	1500	red_square
space	345	1500	red_square
None	0	2500	yellow_circle
None	0	1500	blue_square
None	0	2000	yellow_square
None	0	2500	red_star
None	0	2500	yellow_square
space	540	2000	red_square
None	0	1500	yellow_circle
None	0	2000	green_star
None	0	1500	yellow_circle
space	445	1000	red_square
None	0	1000	red_circle
None	0	1000	blue_square
None	0	1500	blue_triangle
None	0	2500	green_triangle
None	0	2500	green_square
None	0	2500	blue_star
space	490	2500	red_square
None	0	1500	blue_circle
space	441	1000	red_square
None	0	1000	blue_square
None	0	1000	green_square
space	343	2000	red_square
None	0	1500	yellow_star
space	319	2000	red_square
None	0	2000	red_triangle
space	391	2000	red_square
space	414	1500	red_square
None	0	2000	red_circle
None	0	1500	green_square
