response	response_time	trial_ISI	trial_shape
space	502	1500	red_square
None	0	2500	blue_star
space	528	1000	red_square
None	0	1000	red_star
space	423	2500	red_square
None	0	1500	red_star
space	395	1000	red_square
space	426	1500	red_square
None	0	2000	red_triangle
None	0	2000	blue_triangle
space	350	2000	red_square
None	0	2000	green_triangle
None	0	1000	yellow_square
None	0	1500	blue_star
space	322	2500	red_square
None	0	1000	green_square
None	0	1000	yellow_square
None	0	2000	yellow_square
None	0	1500	green_square
None	0	1500	green_star
None	0	1500	blue_square
None	0	2000	blue_square
None	0	1000	blue_square
None	0	1000	red_star
None	0	1500	green_star
None	0	2000	blue_triangle
None	0	1000	red_star
space	340	1500	red_square
None	0	1500	blue_star
None	0	1500	red_star
space	391	1500	red_square
None	0	2000	blue_triangle
None	0	2500	green_square
None	0	2500	yellow_circle
space	424	2000	red_square
space	455	1000	red_square
space	423	1500	red_square
space	425	1500	red_square
space	345	2500	red_square
None	0	2500	red_circle
None	0	1500	blue_square
space	449	1000	red_square
None	0	2000	blue_circle
None	0	2000	yellow_square
None	0	1500	red_triangle
space	322	1500	red_square
None	0	1500	blue_triangle
space	412	1500	red_square
None	0	1500	green_square
None	0	2500	blue_triangle
None	0	2500	yellow_circle
None	0	1000	red_star
None	0	1000	red_triangle
None	0	2000	red_circle
None	0	2500	green_square
None	0	2500	yellow_triangle
None	0	1500	blue_star
None	0	1000	red_star
space	324	2000	red_square
None	0	1000	yellow_circle
space	363	2000	red_square
None	0	2500	yellow_triangle
None	0	2000	green_square
None	0	1500	red_triangle
None	0	1000	red_circle
space	331	2500	red_square
space	405	2500	red_square
None	0	1000	yellow_star
None	0	1000	yellow_circle
None	0	2500	green_circle
None	0	1500	blue_triangle
None	0	2500	green_triangle
None	0	1000	red_triangle
space	369	1500	red_square
None	0	2000	red_triangle
space	403	1000	red_square
None	0	2000	red_circle
None	0	1500	yellow_triangle
None	0	2500	yellow_square
None	0	2000	green_triangle
space	408	2500	red_square
space	433	1500	red_square
None	0	1500	blue_square
None	0	2000	yellow_star
None	0	2500	red_circle
None	0	1000	red_star
None	0	2500	green_square
None	0	2000	blue_circle
None	0	2000	green_square
None	0	2500	yellow_circle
None	0	2500	red_star
space	288	1500	red_square
space	366	1000	red_square
None	0	1500	green_square
None	0	2500	red_triangle
space	447	2500	red_square
None	0	2500	red_circle
space	377	2000	red_square
None	0	2000	green_circle
space	408	2000	red_square
None	0	2000	red_triangle
None	0	2500	green_triangle
None	0	1500	green_star
None	0	2500	yellow_star
None	0	1500	red_star
None	0	2000	blue_square
space	298	1000	red_square
space	297	2000	red_square
None	0	2500	yellow_triangle
space	370	1500	red_triangle
None	0	2000	yellow_star
None	0	2500	blue_triangle
None	0	1000	blue_circle
space	441	1000	red_square
None	0	1500	red_triangle
None	0	1000	yellow_square
space	424	2500	red_square
None	0	1000	yellow_square
space	449	2000	red_square
None	0	2000	red_circle
None	0	1000	yellow_square
None	0	2000	red_triangle
None	0	1500	yellow_square
None	0	2000	green_star
None	0	1500	yellow_square
None	0	2000	red_circle
space	449	1500	red_square
None	0	2500	yellow_square
space	439	1000	red_square
None	0	2000	red_triangle
space	430	1000	red_square
None	0	1000	yellow_square
None	0	2500	blue_square
None	0	1500	green_circle
space	418	2500	red_square
None	0	1000	blue_circle
None	0	2000	red_triangle
None	0	1000	blue_circle
None	0	1000	blue_circle
None	0	2500	blue_square
None	0	2000	red_circle
None	0	1000	blue_circle
None	0	1500	red_triangle
None	0	1500	blue_square
space	376	1500	red_square
None	0	1000	yellow_square
None	0	1500	red_star
None	0	1000	blue_square
None	0	1000	green_star
None	0	1000	yellow_square
None	0	2500	yellow_circle
space	426	2000	red_square
space	370	1500	red_square
None	0	2000	yellow_square
None	0	1500	yellow_triangle
None	0	1500	blue_square
None	0	1500	blue_star
None	0	2500	blue_star
None	0	1500	green_triangle
space	318	1500	red_square
space	399	1500	red_square
space	304	2500	red_square
space	362	1000	red_square
None	0	2500	green_square
space	491	2000	red_square
None	0	1500	green_triangle
None	0	2500	red_circle
space	441	2500	red_square
None	0	1000	blue_star
None	0	2000	red_circle
None	0	1000	red_triangle
space	347	2000	red_square
None	0	1000	red_circle
None	0	2500	green_triangle
None	0	2000	red_star
space	383	1000	red_square
space	358	2500	red_square
space	359	2500	red_square
None	0	1000	yellow_circle
None	0	2500	red_circle
space	416	2000	red_square
None	0	1000	blue_square
space	421	2500	red_square
None	0	2000	green_circle
None	0	1500	red_circle
None	0	2000	green_circle
None	0	2000	red_star
None	0	2500	red_circle
space	441	2500	red_square
space	327	2500	red_square
None	0	2500	blue_star
space	457	1500	red_square
None	0	2500	yellow_square
None	0	2000	yellow_triangle
space	403	1000	red_square
None	0	1000	green_square
None	0	1500	yellow_circle
space	362	2500	red_square
None	0	2500	blue_square
None	0	2500	red_star
space	362	2000	red_square
space	383	1500	red_square
space	312	2500	red_square
space	314	2000	red_square
None	0	2500	blue_star
None	0	1500	blue_square
space	516	1500	red_square
space	414	1500	red_square
None	0	2000	yellow_triangle
None	0	1500	yellow_star
space	440	1000	red_square
None	0	2500	blue_square
None	0	2000	blue_circle
None	0	1500	yellow_circle
space	506	2000	red_square
None	0	2000	green_circle
None	0	1500	red_star
None	0	1500	blue_circle
None	0	1000	blue_circle
None	0	1000	green_square
space	323	1000	red_square
None	0	2000	red_circle
None	0	1000	green_square
None	0	2000	green_star
space	400	1000	red_square
space	327	1500	red_square
space	313	1000	red_square
None	0	2500	blue_star
space	396	1000	red_square
None	0	2000	yellow_triangle
None	0	2000	yellow_triangle
space	401	2500	red_square
None	0	1000	red_star
space	410	1000	red_square
None	0	1000	green_star
None	0	2000	red_triangle
None	0	1000	green_square
space	327	2000	red_square
None	0	2000	green_circle
None	0	1000	blue_triangle
None	0	1000	blue_square
None	0	2000	blue_square
None	0	2500	yellow_square
space	365	1500	red_square
None	0	1000	green_star
None	0	2000	yellow_circle
None	0	2500	green_square
space	399	1000	red_square
None	0	2000	red_circle
None	0	1500	yellow_star
None	0	1000	red_circle
None	0	2000	yellow_triangle
None	0	2500	green_triangle
None	0	1000	red_triangle
None	0	1500	green_triangle
None	0	2000	blue_star
None	0	2000	blue_triangle
None	0	2500	yellow_square
None	0	1000	green_triangle
space	525	1500	red_square
None	0	2500	yellow_star
None	0	1000	yellow_circle
space	469	2500	red_square
None	0	1500	yellow_star
None	0	2000	green_circle
None	0	2000	blue_triangle
None	0	1500	blue_circle
None	0	2000	red_triangle
None	0	1000	green_circle
None	0	1500	yellow_star
None	0	1500	green_square
space	350	1500	red_square
None	0	1000	green_circle
space	383	2500	red_square
None	0	1500	yellow_triangle
space	364	1500	red_square
space	412	2000	red_square
None	0	2000	yellow_star
space	363	1000	red_square
None	0	1000	yellow_star
None	0	2000	blue_circle
None	0	2000	green_circle
space	368	1000	red_square
None	0	1000	green_square
None	0	2500	green_triangle
None	0	2000	green_star
None	0	1500	green_triangle
None	0	1000	blue_triangle
None	0	1000	green_square
space	389	2500	red_square
None	0	2500	blue_square
None	0	2500	blue_star
None	0	2000	blue_triangle
None	0	2500	red_circle
None	0	1500	green_star
None	0	1000	green_circle
None	0	1000	red_star
None	0	1500	green_circle
space	305	2500	red_square
space	371	2500	red_square
None	0	1500	red_star
None	0	2000	green_star
space	437	2500	red_square
None	0	2000	yellow_circle
None	0	2500	blue_square
space	413	2500	red_square
None	0	2000	blue_triangle
None	0	2500	red_star
space	448	1000	red_square
None	0	1000	yellow_star
None	0	2000	green_star
None	0	2500	green_triangle
None	0	1500	blue_star
space	449	1500	red_square
space	382	2500	red_square
space	367	2500	red_square
None	0	1500	yellow_triangle
None	0	2000	yellow_square
space	376	1500	red_square
space	353	2500	red_square
