trial	condition	rt	acc	resp	word	val	gra	col	l_targ	r_targ
1	2	2354	0	2	BUNT	A	P	2	S	A
2	3	3474	0	1	KRAFTLOS	A	N	1	R	B
3	1	2821	0	2	IDYLLE	S	P	2	N	P
4	3	2108	0	2	LEBENDIG	A	P	2	R	B
5	1	1526	0	2	GEWINN	S	P	1	N	P
6	1	4222	0	2	LOYAL	A	P	2	N	P
7	3	2381	0	1	TOPFIT	A	P	1	R	B
8	2	2394	0	2	GIERIG	A	N	2	S	A
9	1	3689	0	1	INFERNO	S	N	1	N	P
10	2	2987	0	1	KÜSTE	S	P	2	S	A
11	1	1993	0	1	BOSHAFT	A	N	1	N	P
12	2	3754	0	2	MUTIG	A	P	2	S	A
13	2	994	0	1	BLÜTE	S	P	2	S	A
14	3	1841	0	1	INSEL	S	P	1	R	B
15	3	1920	0	2	MASSAGE	S	P	2	R	B
16	3	1025	0	2	GEMETZEL	S	N	2	R	B
17	1	2456	0	2	PERFEKT	A	P	1	N	P
18	1	1312	0	2	HEITER	A	P	1	N	P
19	1	1190	0	1	MORDFALL	S	N	1	N	P
20	2	2099	0	1	ALPTRAUM	S	N	1	S	A
21	2	2302	0	2	TROSTLOS	A	N	2	S	A
22	2	816	0	1	SCHLACHT	S	N	1	S	A
23	1	2264	0	1	TOXISCH	A	N	2	N	P
24	3	2714	0	1	UNFALL	S	N	1	R	B
25	1	2749	0	2	GESCHENK	S	P	2	N	P
26	1	1035	0	2	VERTRAUT	A	P	2	N	P
27	3	1848	0	2	NATUR	S	P	2	R	B
28	2	2039	0	1	SOMMER	S	P	1	S	A
29	1	2289	0	2	SILBERN	A	P	1	N	P
30	3	2445	0	1	SATT	A	P	1	R	B
31	3	2041	0	1	TREULOS	A	N	1	R	B
32	2	1736	0	1	SADISMUS	S	N	2	S	A
33	1	1200	0	1	ÜBERFALL	S	N	1	N	P
34	3	1655	0	1	FRIEDEN	S	P	1	R	B
35	1	1492	0	2	ENERGIE	S	P	1	N	P
36	3	1792	0	2	OHRFEIGE	S	N	2	R	B
37	1	2311	0	2	ZART	A	P	1	N	P
38	2	2009	0	1	LEPRA	S	N	2	S	A
39	3	1456	0	2	SUPER	A	P	2	R	B
40	1	3485	0	2	FRIEDE	S	P	1	N	P
41	2	2413	1	1	DEKADENT	A	N	1	S	A
42	3	2452	0	2	FREIHEIT	S	P	2	R	B
43	1	2273	0	2	ERFOLG	S	P	1	N	P
44	2	1531	0	2	FREUDIG	A	P	2	S	A
45	3	2219	0	2	MONSTRUM	S	N	2	R	B
46	1	2274	0	2	WEISHEIT	S	P	2	N	P
47	2	3431	0	1	TRAUMA	S	N	2	S	A
48	1	1722	0	2	ZUKUNFT	S	P	1	N	P
49	3	2651	0	1	FOLTER	S	N	1	R	B
50	1	2534	0	1	GIFTGAS	S	N	2	N	P
51	2	2319	0	1	BLUTTAT	S	N	2	S	A
52	3	1840	0	1	UNHEIL	S	N	1	R	B
53	2	2111	1	1	BANKROTT	A	N	2	S	A
54	2	856	0	1	VERTRAUEN	S	P	2	S	A
55	3	2071	0	2	SEEKRANK	A	N	2	R	B
56	2	1706	0	1	BESTIE	S	N	1	S	A
57	1	2219	0	1	TODFEIND	S	N	1	N	P
58	2	2555	0	2	POSITIV	A	P	2	S	A
59	1	2432	0	2	REICH	A	P	2	N	P
60	3	4040	0	2	TAKTVOLL	A	P	2	R	B
61	2	1980	0	1	LEICHNAM	S	N	1	S	A
62	3	2194	0	1	GREUEL	S	N	1	R	B
63	2	2583	0	2	UNGESUND	A	N	1	S	A
64	1	3480	0	2	FORTUNA	S	P	2	N	P
65	1	1539	0	2	KLUGHEIT	S	P	1	N	P
66	1	1027	0	1	BLUTIG	A	N	1	N	P
67	2	3099	0	2	STRAFBAR	A	N	2	S	A
68	2	1028	0	1	ATEMNOT	S	N	1	S	A
69	3	1713	0	2	KIRSCHE	S	P	2	R	B
70	2	2026	0	1	TOLERANZ	S	P	2	S	A
71	3	2304	0	1	BRILLANT	A	P	1	R	B
72	3	1353	0	2	KREATIV	A	P	2	R	B
73	3	1076	0	2	EINSAM	A	N	2	R	B
74	2	1297	0	1	SATAN	S	N	2	S	A
75	1	1835	0	1	GEWALT	S	N	1	N	P
76	2	1441	0	1	FRÜHJAHR	S	P	2	S	A
77	1	2030	0	2	STARK	A	P	2	N	P
78	2	1760	0	1	ABENDROT	S	P	1	S	A
79	2	961	0	2	GRAUSAM	A	N	1	S	A
80	3	1803	0	1	UNRECHT	S	N	1	R	B
81	1	3314	0	1	FREUDLOS	A	N	1	N	P
82	3	1940	0	2	LABIL	A	N	2	R	B
83	3	1219	0	2	ABSTURZ	S	N	2	R	B
84	1	1962	0	2	PRIMA	A	P	1	N	P
85	3	1979	0	2	KRANK	A	N	2	R	B
86	1	2299	0	2	VATER	S	P	2	N	P
87	1	1091	0	1	LIEBLOS	A	N	2	N	P
88	2	2358	1	1	PLEITE	A	N	1	S	A
89	2	4423	0	1	HENKER	S	N	2	S	A
90	2	773	0	1	SABOTEUR	S	N	1	S	A
91	1	3341	0	1	ANGRIFF	S	N	1	N	P
92	1	1501	0	2	TOLL	A	P	2	N	P
93	1	1312	0	2	HEILFROH	A	P	1	N	P
94	3	2097	0	1	OPTIMIST	S	P	1	R	B
95	3	1827	0	1	VITAL	A	P	1	R	B
96	1	1403	0	1	ZERLUMPT	A	N	2	N	P
97	1	1192	0	1	SEKTE	S	N	2	N	P
98	2	2082	0	1	DROHUNG	S	N	2	S	A
99	1	1508	0	2	LEBEN	S	P	1	N	P
100	2	2061	0	1	FANTASIE	S	P	2	S	A
101	2	2603	0	1	STRAFTAT	S	N	2	S	A
102	2	1208	0	2	MILITANT	A	N	1	S	A
103	1	1600	0	2	ZUHAUSE	S	P	1	N	P
104	3	2268	0	2	TUMOR	S	N	2	R	B
105	1	2745	0	2	HEILUNG	S	P	2	N	P
106	1	1033	0	2	MUSIK	S	P	2	N	P
107	3	752	0	2	NETT	A	P	2	R	B
108	2	4122	0	2	SPONTAN	A	P	2	S	A
109	1	1279	0	1	SCHLECHT	A	N	2	N	P
110	2	4573	0	2	SCHLAU	A	P	1	S	A
111	1	2940	0	1	ZIELLOS	A	N	1	N	P
112	1	2684	0	2	FRAULICH	A	P	2	N	P
113	2	3007	0	2	LAUNISCH	A	N	2	S	A
114	3	1364	0	2	HIMMEL	S	P	2	R	B
115	1	1558	0	2	FROH	A	P	1	N	P
116	3	2276	0	1	GALGEN	S	N	1	R	B
117	1	1218	0	1	VERLETZT	A	N	2	N	P
118	1	1589	0	2	WAHRHEIT	S	P	1	N	P
119	2	1727	0	2	GRUSELIG	A	N	2	S	A
120	2	1790	0	2	SAUBER	A	P	1	S	A
121	3	1727	0	1	TOLERANT	A	P	1	R	B
122	3	1192	0	2	LUSTLOS	A	N	2	R	B
123	2	2000	0	1	ERZFEIND	S	N	2	S	A
124	3	1740	0	1	KORRUPT	A	N	1	R	B
125	2	2544	0	1	PRACHT	S	P	2	S	A
126	3	1903	0	2	UNBEQUEM	A	N	2	R	B
127	3	1001	0	2	HUMORLOS	A	N	2	R	B
128	2	2210	1	1	ELEND	A	N	1	S	A
129	3	3958	0	1	STRAND	S	P	1	R	B
130	1	3567	0	1	ANOMAL	A	N	2	N	P
131	3	2244	0	1	VERWEINT	A	N	1	R	B
132	2	1763	0	2	HERZLOS	A	N	2	S	A
133	3	1811	0	1	HOFFNUNG	S	P	1	R	B
134	3	1114	0	2	FERIEN	S	P	2	R	B
135	2	1652	0	1	BEGABUNG	S	P	1	S	A
136	2	1192	0	1	UNMENSCH	S	N	1	S	A
137	3	1472	0	2	FURCHT	S	N	2	R	B
138	1	1796	0	2	TALENT	S	P	2	N	P
139	2	2546	0	2	WEISE	A	P	1	S	A
140	1	4401	0	1	SCHMERZ	S	N	1	N	P
141	3	2170	0	2	SATT	A	P	2	R	B
142	1	1252	0	1	INFERNO	S	N	1	N	P
143	2	1934	0	1	JUBEL	S	P	2	S	A
144	3	1494	0	1	PLANLOS	A	N	1	R	B
145	1	1267	0	1	VIRUS	S	N	2	N	P
146	2	2327	0	1	FREUDE	S	P	1	S	A
147	3	1961	0	1	BUNT	A	P	1	R	B
148	1	3490	0	1	TREULOS	A	N	1	N	P
149	2	1563	0	2	MILITANT	A	N	2	S	A
150	3	1292	0	2	REIZVOLL	A	P	2	R	B
151	1	2183	0	2	VERTRAUT	A	P	2	N	P
152	2	1431	0	1	KLUGHEIT	S	P	2	S	A
153	1	2180	0	1	UNRECHT	S	N	1	N	P
154	3	2588	0	2	SCHMERZ	S	N	2	R	B
155	1	2577	0	2	SPONTAN	A	P	1	N	P
156	2	1282	0	1	TUMOR	S	N	1	S	A
157	3	1211	0	2	KRANK	A	N	2	R	B
158	2	1764	0	2	TOLERANT	A	P	2	S	A
159	2	1066	0	1	TALENT	S	P	2	S	A
160	3	1325	0	2	WEHRLOS	A	N	2	R	B
161	2	1999	0	2	ZIELLOS	A	N	2	S	A
162	1	2150	0	1	BODENLOS	A	N	1	N	P
163	2	2303	0	2	LOYAL	A	P	2	S	A
164	1	1809	0	2	PFIFFIG	A	P	2	N	P
165	3	2480	0	1	ASOZIAL	A	N	1	R	B
166	2	1674	0	2	GRATIS	A	P	1	S	A
167	3	1904	0	1	PEINIGER	S	N	1	R	B
168	2	1658	1	2	IRRSINN	S	N	2	S	A
169	1	2487	0	1	STREIT	S	N	2	N	P
170	1	1170	0	1	BESTIE	S	N	2	N	P
171	1	1560	0	1	NOTFALL	S	N	2	N	P
172	2	1961	0	2	GRANDIOS	A	P	2	S	A
173	2	978	0	1	BLUTTAT	S	N	2	S	A
174	3	1323	0	1	IDYLLE	S	P	1	R	B
175	2	1965	0	2	GRUSELIG	A	N	1	S	A
176	1	4579	0	2	HARMONIE	S	P	2	N	P
177	3	1442	0	1	LEPRA	S	N	1	R	B
178	2	1926	0	2	STARK	A	P	2	S	A
179	1	2480	0	1	UNFAIR	A	N	1	N	P
180	2	2213	0	1	ERHOLUNG	S	P	2	S	A
181	1	1546	0	1	FURCHT	S	N	1	N	P
182	1	1730	0	1	GIERIG	A	N	2	N	P
183	2	1526	0	2	TAPFER	A	P	1	S	A
184	3	1191	0	2	FANTASIE	S	P	2	R	B
185	1	2358	0	2	ROBUST	A	P	2	N	P
186	3	2295	0	1	TRENNUNG	S	N	1	R	B
187	1	2130	0	1	ENTSETZT	A	N	2	N	P
188	1	1065	0	1	MONSTRUM	S	N	1	N	P
189	2	1271	0	1	GEWINN	S	P	1	S	A
190	2	932	0	2	LABIL	A	N	2	S	A
191	3	1267	0	1	SATAN	S	N	1	R	B
192	3	944	0	2	BRILLANT	A	P	2	R	B
193	2	1521	0	1	VERRAT	S	N	1	S	A
194	3	1155	0	1	MUNTER	A	P	1	R	B
195	2	1812	0	1	BEFREIUNG	S	P	2	S	A
196	3	1346	0	2	UNFALL	S	N	2	R	B
197	3	995	0	2	LIEBLOS	A	N	2	R	B
198	2	1881	0	2	AKTIV	A	P	2	S	A
199	3	1352	0	1	SABOTEUR	S	N	1	R	B
200	1	2621	0	1	UNGESUND	A	N	2	N	P
201	3	1756	0	1	BEQUEM	A	P	1	R	B
202	2	2684	0	2	VERLETZT	A	N	1	S	A
203	3	2143	0	2	SCHLECHT	A	N	2	R	B
204	3	2297	0	2	TODFEIND	S	N	2	R	B
205	2	1338	0	1	TOLERANZ	S	P	1	S	A
206	2	949	0	1	ATTENTAT	S	N	1	S	A
207	3	2525	0	1	SINNVOLL	A	P	1	R	B
208	1	3365	0	1	DROHUNG	S	N	2	N	P
209	2	1500	0	1	MASSAKER	S	N	1	S	A
210	1	1569	0	1	BRUTAL	A	N	2	N	P
211	3	1375	0	2	HEILFROH	A	P	2	R	B
212	3	1183	0	1	TRIST	A	N	1	R	B
213	3	1830	0	1	ZERLUMPT	A	N	1	R	B
214	2	1260	0	2	TOXISCH	A	N	1	S	A
215	1	3192	0	2	LEBENDIG	A	P	2	N	P
216	2	1350	0	2	GRAUSAM	A	N	1	S	A
217	1	1159	0	1	BLUTIG	A	N	1	N	P
218	2	1851	0	2	HUMAN	A	P	1	S	A
219	2	1229	0	1	HENKER	S	N	1	S	A
220	3	1667	0	1	NATUR	S	P	1	R	B
221	1	1358	0	1	GEMEIN	A	N	1	N	P
222	3	1264	0	2	PRIMA	A	P	2	R	B
223	3	1156	0	2	MUTIG	A	P	2	R	B
224	1	2149	0	2	VITAL	A	P	1	N	P
225	3	1501	0	1	GENIAL	A	P	1	R	B
226	1	1304	0	2	ZUHAUSE	S	P	1	N	P
227	1	1604	0	1	GEWALT	S	N	2	N	P
228	2	2217	0	2	ELEND	A	N	2	S	A
229	2	1213	0	2	SUPER	A	P	1	S	A
230	2	772	0	1	FORTUNA	S	P	1	S	A
231	1	1508	0	1	UNTREUE	S	N	2	N	P
232	1	1408	0	2	FRÜHJAHR	S	P	1	N	P
233	1	1230	0	2	SONNIG	A	P	2	N	P
234	3	1706	0	2	KOLLAPS	S	N	2	R	B
235	3	1119	0	2	HIMMEL	S	P	2	R	B
236	1	1359	0	1	SADISMUS	S	N	2	N	P
237	1	1745	0	2	FERIEN	S	P	1	N	P
238	2	1928	0	1	GEMETZEL	S	N	1	S	A
239	1	1451	0	2	LIEB	A	P	1	N	P
240	2	1999	0	1	OPTIMIST	S	P	2	S	A
241	2	911	0	1	AGGRESSION	S	N	1	S	A
242	2	787	0	2	PANISCH	A	N	1	S	A
243	1	1768	0	1	ILLEGAL	A	N	1	N	P
244	3	1832	0	2	ERFÜLLUNG	S	P	2	R	B
245	1	1543	0	2	FREIZEIT	S	P	2	N	P
246	2	1590	0	1	GRANATE	S	N	1	S	A
247	3	1990	0	1	PRACHT	S	P	1	R	B
248	1	2508	0	1	DEKADENT	A	N	2	N	P
249	3	1584	0	2	SCHLAU	A	P	2	R	B
250	1	2296	0	2	WAHRHEIT	S	P	1	N	P
251	1	2561	0	2	REICH	A	P	1	N	P
252	3	2459	0	2	GESUND	A	P	2	R	B
253	2	1463	0	1	BLÜTE	S	P	1	S	A
254	1	1530	0	2	ERDBEERE	S	P	1	N	P
255	2	1843	0	1	SEKTE	S	N	1	S	A
256	1	1992	0	2	STABIL	A	P	2	N	P
257	2	2425	0	1	KLARHEIT	S	P	1	S	A
258	2	1021	0	2	TREU	A	P	1	S	A
259	3	1570	0	1	HOFFNUNG	S	P	1	R	B
260	3	1029	0	1	UNMENSCH	S	N	1	R	B
261	3	897	0	1	WERTVOLL	A	P	1	R	B
262	1	1195	0	1	ATEMNOT	S	N	1	N	P
263	1	2291	0	2	WARM	A	P	1	N	P
264	1	4365	0	1	TROSTLOS	A	N	1	N	P
265	2	3476	0	2	TOLL	A	P	2	S	A
266	2	1120	0	1	ALPTRAUM	S	N	1	S	A
267	2	865	0	1	TRAUMA	S	N	2	S	A
268	1	1216	0	2	FRIEDE	S	P	2	N	P
269	3	3900	0	2	ÜBERFALL	S	N	2	R	B
270	1	1271	0	2	SOMMER	S	P	1	N	P
271	1	1081	0	1	MACHTLOS	A	N	2	N	P
272	3	3382	0	1	OHRFEIGE	S	N	1	R	B
273	2	3157	0	2	BELIEBT	A	P	1	S	A
274	1	1157	0	1	TRAURIG	A	N	2	N	P
275	3	2806	0	2	PARTNER	S	P	2	R	B
276	3	1289	0	2	FREUDIG	A	P	2	R	B
277	2	1996	0	1	HEILUNG	S	P	1	S	A
278	1	1526	0	1	BOSHAFT	A	N	1	N	P
279	3	1469	0	1	VERTRAUEN	S	P	1	R	B
280	1	1618	0	2	INSEL	S	P	1	N	P
281	2	1732	0	2	POSITIV	A	P	1	S	A
282	3	1915	0	2	BRILLANT	A	P	2	R	B
283	1	1208	0	2	INSEL	S	P	1	N	P
284	3	1237	0	2	NETT	A	P	2	R	B
285	1	1451	0	2	STABIL	A	P	1	N	P
286	1	1230	0	2	SILBERN	A	P	2	N	P
287	3	2507	0	2	PEINIGER	S	N	2	R	B
288	2	1095	1	2	BLUTTAT	S	N	1	S	A
289	1	1979	0	1	MACHTLOS	A	N	1	N	P
290	2	1682	0	2	RASTLOS	A	N	1	S	A
291	1	1653	0	1	FURCHT	S	N	1	N	P
292	2	1689	0	2	GENIAL	A	P	1	S	A
293	2	1383	0	1	REVOLVER	S	N	1	S	A
294	3	1990	0	1	TRENNUNG	S	N	1	R	B
295	3	2013	0	2	MUSIK	S	P	2	R	B
296	3	1315	0	2	FOLTER	S	N	2	R	B
297	1	1380	0	2	SINNVOLL	A	P	1	N	P
298	1	1347	0	2	FRAULICH	A	P	2	N	P
299	1	1382	0	2	GRANDIOS	A	P	2	N	P
300	2	1379	0	1	BEGABUNG	S	P	2	S	A
301	2	705	0	1	KLUGHEIT	S	P	2	S	A
302	2	629	0	1	UNTREUE	S	N	2	S	A
303	1	1643	0	1	ILLEGAL	A	N	2	N	P
304	3	1297	0	1	BODENLOS	A	N	1	R	B
305	1	1339	0	1	HALBTOT	A	N	1	N	P
306	1	1051	0	2	FANTASIE	S	P	1	N	P
307	3	2288	0	2	LIEBLOS	A	N	2	R	B
308	2	2276	0	2	UNGESUND	A	N	2	S	A
309	1	1246	0	1	STRAFTAT	S	N	1	N	P
310	3	1628	0	2	JUBEL	S	P	2	R	B
311	3	795	0	1	URLAUB	S	P	1	R	B
312	2	1729	0	1	NOTFALL	S	N	2	S	A
313	1	1733	0	2	WISSEN	S	P	1	N	P
314	3	1494	0	2	OPTIMAL	A	P	2	R	B
315	1	1560	0	2	TOPFIT	A	P	2	N	P
316	3	1274	0	2	HEITER	A	P	2	R	B
317	1	2205	0	1	TOXISCH	A	N	2	N	P
318	2	2827	0	1	FREUDE	S	P	1	S	A
319	3	1449	0	1	SATT	A	P	1	R	B
320	1	1486	0	2	PRIMA	A	P	1	N	P
321	2	2313	0	1	ERFÜLLUNG	S	P	1	S	A
322	3	1323	0	1	VERBOTEN	A	N	1	R	B
323	1	1766	0	1	SEEKRANK	A	N	2	N	P
324	2	2197	1	2	MUTTER	S	P	2	S	A
325	3	3409	0	1	WEHRLOS	A	N	1	R	B
326	1	2194	0	1	VERWEINT	A	N	1	N	P
327	2	1329	0	1	ATTENTAT	S	N	1	S	A
328	1	1464	0	2	HOFFNUNG	S	P	2	N	P
329	3	1558	0	1	MORDTAT	S	N	1	R	B
330	1	2205	0	2	GESUND	A	P	2	N	P
331	2	2062	0	2	STILVOLL	A	P	1	S	A
332	3	1416	0	2	KRANK	A	N	2	R	B
333	2	1928	0	2	ENTSETZT	A	N	2	S	A
334	2	985	0	1	IRRSINN	S	N	1	S	A
335	3	1344	0	2	WEISE	A	P	2	R	B
336	2	1642	0	1	BLUME	S	P	1	S	A
337	1	1246	0	1	BOSHAFT	A	N	1	N	P
338	2	1882	0	1	FRIEDEN	S	P	1	S	A
339	1	1094	0	2	ENERGIE	S	P	2	N	P
340	3	2193	0	1	TRAGISCH	A	N	1	R	B
341	2	1722	0	2	PLANLOS	A	N	2	S	A
342	3	1273	0	1	UNBEQUEM	A	N	1	R	B
343	2	3040	0	2	LEBLOS	A	N	2	S	A
344	1	1290	0	1	VERLOGEN	A	N	1	N	P
345	1	895	0	2	FRIEDE	S	P	1	N	P
346	1	1956	0	2	HEILFROH	A	P	2	N	P
347	2	1922	0	1	GESCHENK	S	P	2	S	A
348	2	742	0	1	EROTIK	S	P	2	S	A
349	3	1663	0	2	ERHOLUNG	S	P	2	R	B
350	2	2241	0	2	LUKRATIV	A	P	2	S	A
351	3	1486	0	1	PFIFFIG	A	P	1	R	B
352	3	833	0	2	KOLLAPS	S	N	2	R	B
353	3	776	0	1	BUNT	A	P	1	R	B
354	2	1879	0	1	OPTIMIST	S	P	1	S	A
355	1	1604	0	2	HUMOR	S	P	2	N	P
356	2	2026	0	1	KÜSTE	S	P	1	S	A
357	1	2058	0	1	AGGRESSION	S	N	1	N	P
358	2	1748	0	2	TRAURIG	A	N	2	S	A
359	2	875	0	1	NATUR	S	P	1	S	A
360	3	1394	0	1	UNRECHT	S	N	1	R	B
361	1	1809	0	1	TROSTLOS	A	N	2	N	P
362	3	2023	0	1	VERLETZT	A	N	1	R	B
363	3	774	0	2	DROHUNG	S	N	2	R	B
364	1	1358	0	1	GEFAHR	S	N	2	N	P
365	3	1592	0	1	GEWINN	S	P	1	R	B
366	1	1718	0	1	TRAUMA	S	N	2	N	P
367	1	1206	0	2	SPONTAN	A	P	2	N	P
368	2	1712	0	1	BESTIE	S	N	1	S	A
369	2	1588	0	2	ANOMAL	A	N	2	S	A
370	2	1280	0	1	IDYLLE	S	P	1	S	A
371	1	1273	1	1	TALENT	S	P	2	N	P
372	1	3766	0	1	INFERNO	S	N	1	N	P
373	1	981	0	2	WARM	A	P	1	N	P
374	3	1500	0	2	GRAUSAM	A	N	2	R	B
375	3	2198	0	1	ERZFEIND	S	N	1	R	B
376	1	1957	0	1	GEISEL	S	N	2	N	P
377	1	1544	1	1	TAPFER	A	P	1	N	P
378	2	3064	0	2	UNFAIR	A	N	1	S	A
379	1	3179	0	1	PEINLICH	A	N	2	N	P
380	2	1783	0	1	GIFTGAS	S	N	2	S	A
381	2	1490	0	2	FREUDIG	A	P	2	S	A
382	2	1072	0	2	TREULOS	A	N	1	S	A
383	1	3844	1	2	DEKADENT	A	N	1	N	P
384	3	3398	0	2	PLEITE	A	N	2	R	B
385	1	3956	0	1	ASCHFAHL	A	N	1	N	P
386	1	1496	0	1	MASSAKER	S	N	1	N	P
387	3	1300	0	2	PSYCHOSE	S	N	2	R	B
388	2	1631	0	1	FREIHEIT	S	P	2	S	A
389	1	1676	0	1	MORDFALL	S	N	2	N	P
390	2	1699	0	2	ANMUTIG	A	P	1	S	A
391	1	1184	0	1	SKLAVE	S	N	1	N	P
392	1	1355	0	2	SAUBER	A	P	2	N	P
393	2	1992	0	1	ABSTURZ	S	N	1	S	A
394	3	1170	0	2	GIERIG	A	N	2	R	B
395	1	1225	0	2	LIEB	A	P	1	N	P
396	3	3698	0	2	SCHLAU	A	P	2	R	B
397	1	2046	0	2	PRACHT	S	P	2	N	P
398	1	1041	0	1	STRAFBAR	A	N	1	N	P
399	2	1424	0	2	ZWECKLOS	A	N	1	S	A
400	2	1119	0	2	MUTIG	A	P	2	S	A
401	3	1442	0	2	AKTIV	A	P	2	R	B
402	3	1062	0	1	GRUSELIG	A	N	1	R	B
403	2	2338	0	2	KREATIV	A	P	1	S	A
404	3	2132	0	1	MUNTER	A	P	1	R	B
405	2	2590	0	1	FREIZEIT	S	P	1	S	A
406	3	1653	0	1	PANIK	S	N	1	R	B
407	3	1005	0	1	GEWALT	S	N	1	R	B
408	2	1387	0	1	ABENDROT	S	P	2	S	A
409	3	2236	0	2	MASSAGE	S	P	2	R	B
410	1	1321	0	1	TERROR	S	N	1	N	P
411	3	2108	0	2	HILFLOS	A	N	2	R	B
412	2	1905	0	2	WERTVOLL	A	P	2	S	A
413	3	1798	0	2	TRIST	A	N	2	R	B
414	3	1056	0	2	BANKROTT	A	N	2	R	B
415	2	2997	0	1	HIMMEL	S	P	2	S	A
416	2	655	1	1	SONNIG	A	P	2	S	A
417	3	3297	0	2	KORRUPT	A	N	2	R	B
418	1	1827	0	1	LAUNISCH	A	N	1	N	P
419	2	3079	0	2	REICH	A	P	2	S	A
420	1	2368	0	2	PARTNER	S	P	1	N	P
