trial	condition	rt	acc	resp	word	val	gra	col	l_targ	r_targ
1	3	3325	0	2	MUTIG	A	P	2	R	B
2	1	3624	0	2	ERFÜLLUNG	S	P	2	N	P
3	2	1357	0	1	NATUR	S	P	2	S	A
4	3	2228	0	2	BEQUEM	A	P	2	R	B
5	1	2548	0	1	UNBEQUEM	A	N	2	N	P
6	2	1386	0	2	GEMEIN	A	N	2	S	A
7	3	1275	0	1	TRAURIG	A	N	1	R	B
8	1	1764	1	2	STREIT	S	N	2	N	P
9	2	1949	0	1	OHRFEIGE	S	N	1	S	A
10	3	2853	0	1	SCHLECHT	A	N	1	R	B
11	1	2176	0	2	URLAUB	S	P	1	N	P
12	2	2050	0	2	SATT	A	P	2	S	A
13	1	2350	0	2	TOLERANZ	S	P	1	N	P
14	3	2111	0	1	BESTIE	S	N	1	R	B
15	1	3033	0	1	ASOZIAL	A	N	2	N	P
16	2	2509	0	2	GESUND	A	P	1	S	A
17	3	1409	0	1	LEICHNAM	S	N	1	R	B
18	2	2230	0	2	TAPFER	A	P	1	S	A
19	2	2596	0	1	TUMOR	S	N	2	S	A
20	3	1585	0	1	ZART	A	P	1	R	B
21	2	1578	0	1	ZUKUNFT	S	P	1	S	A
22	1	1728	0	1	GRANATE	S	N	1	N	P
23	2	2537	0	2	POSITIV	A	P	2	S	A
24	1	3259	0	2	VERTRAUT	A	P	1	N	P
25	3	1479	0	1	GUTARTIG	A	P	1	R	B
26	2	2248	0	1	SCHLACHT	S	N	1	S	A
27	3	2008	0	1	SADISMUS	S	N	1	R	B
28	2	2213	0	1	BEGABUNG	S	P	2	S	A
29	1	3980	0	1	HALBTOT	A	N	2	N	P
30	1	3440	0	1	UNGESUND	A	N	2	N	P
31	1	1766	0	2	LUKRATIV	A	P	2	N	P
32	2	2072	0	2	TROSTLOS	A	N	1	S	A
33	2	1874	0	1	GESCHENK	S	P	1	S	A
34	3	1298	0	1	MASSAGE	S	P	1	R	B
35	2	1743	0	1	GEMETZEL	S	N	1	S	A
36	2	2129	0	1	INTRIGE	S	N	2	S	A
37	3	1452	0	2	STRAND	S	P	2	R	B
38	1	1992	0	2	KLUGHEIT	S	P	1	N	P
39	3	1624	0	2	EHRLICH	A	P	2	R	B
40	1	3814	0	1	UNRECHT	S	N	1	N	P
41	1	1538	0	2	WEISE	A	P	1	N	P
42	3	2139	0	2	PFIFFIG	A	P	2	R	B
43	2	1180	0	1	ERHOLUNG	S	P	2	S	A
44	1	3081	0	2	HEILFROH	A	P	2	N	P
45	2	1894	0	1	FREIZEIT	S	P	2	S	A
46	1	2504	0	1	BLUTIG	A	N	2	N	P
47	2	3178	0	2	REIZVOLL	A	P	1	S	A
48	2	1794	0	2	KREATIV	A	P	2	S	A
49	3	1263	0	1	NETT	A	P	1	R	B
50	3	1830	0	2	TAKTVOLL	A	P	2	R	B
51	3	1456	0	1	ZWECKLOS	A	N	1	R	B
52	1	2141	0	1	VIRUS	S	N	2	N	P
53	1	1248	0	1	GALGEN	S	N	2	N	P
54	1	1539	0	1	MORDTAT	S	N	1	N	P
55	2	1934	0	2	SCHLAU	A	P	2	S	A
56	2	1358	0	2	LOYAL	A	P	2	S	A
57	2	1616	0	1	GIFTGAS	S	N	1	S	A
58	1	2646	0	2	HEITER	A	P	2	N	P
59	3	1448	0	1	FRIEDE	S	P	1	R	B
60	1	3840	0	1	STRAFBAR	A	N	1	N	P
61	1	1785	0	2	ENERGIE	S	P	2	N	P
62	3	2160	0	2	FOLTER	S	N	2	R	B
63	2	1778	0	1	ATTENTAT	S	N	2	S	A
64	1	2673	0	1	GEWALT	S	N	1	N	P
65	3	1422	0	2	AKTIV	A	P	2	R	B
66	3	2324	0	1	UNHEIL	S	N	1	R	B
67	2	1302	0	1	PRACHT	S	P	2	S	A
68	1	1903	0	1	VERBOTEN	A	N	2	N	P
69	3	1896	0	2	SEEKRANK	A	N	2	R	B
70	1	2835	0	2	STILVOLL	A	P	2	N	P
71	1	952	0	2	ANMUTIG	A	P	2	N	P
72	3	1251	0	2	SINNLICH	A	P	2	R	B
73	2	1230	0	1	SONNABEND	S	P	1	S	A
74	1	1686	0	2	PARTNER	S	P	2	N	P
75	2	1856	0	1	FREIHEIT	S	P	1	S	A
76	1	1364	0	1	PERVERS	A	N	2	N	P
77	1	2386	0	1	PANIK	S	N	1	N	P
78	2	1364	0	1	TRAUMA	S	N	2	S	A
79	3	2133	0	1	SINNVOLL	A	P	1	R	B
80	1	2138	1	2	ANOMAL	A	N	2	N	P
81	3	1541	0	2	MORDFALL	S	N	2	R	B
82	1	3006	0	1	ASCHFAHL	A	N	2	N	P
83	1	1445	0	1	UNTREUE	S	N	1	N	P
84	2	1553	0	2	HILFLOS	A	N	1	S	A
85	2	1248	1	1	TREU	A	P	2	S	A
86	3	3078	0	1	FRAULICH	A	P	1	R	B
87	3	2521	0	1	ENTSETZT	A	N	1	R	B
88	2	1154	0	1	STRAFTAT	S	N	2	S	A
89	3	3171	0	1	BEFREIUNG	S	P	1	R	B
90	2	1580	0	2	TOLERANT	A	P	2	S	A
91	3	3124	0	2	KORRUPT	A	N	2	R	B
92	3	1664	0	1	PSYCHOSE	S	N	1	R	B
93	2	1414	0	2	HUMAN	A	P	2	S	A
94	3	1618	0	1	HIMMEL	S	P	1	R	B
95	1	2010	0	2	HOFFNUNG	S	P	2	N	P
96	3	1457	0	2	TREULOS	A	N	2	R	B
97	2	1271	0	2	FREUDIG	A	P	2	S	A
98	3	1530	0	1	BRUTAL	A	N	1	R	B
99	3	1933	0	2	EINSAM	A	N	2	R	B
100	2	1627	0	2	OPTIMAL	A	P	2	S	A
101	2	1579	0	1	AGGRESSION	S	N	1	S	A
102	3	3034	0	1	LEBENDIG	A	P	1	R	B
103	1	1828	0	2	GEWINN	S	P	1	N	P
104	2	1726	0	1	OPTIMIST	S	P	2	S	A
105	1	4644	0	1	LABIL	A	N	1	N	P
106	3	1196	0	1	EROTIK	S	P	1	R	B
107	3	2089	0	1	WEIBLICH	A	P	1	R	B
108	3	1246	0	2	VATER	S	P	2	R	B
109	2	1370	0	1	HEILUNG	S	P	1	S	A
110	1	2361	0	2	FORTUNA	S	P	2	N	P
111	2	2642	0	1	ABENDROT	S	P	1	S	A
112	1	1784	0	1	IRRSINN	S	N	1	N	P
113	2	1991	0	1	GEFÜHL	S	P	1	S	A
114	2	1533	0	2	VERLOGEN	A	N	1	S	A
115	3	2615	0	2	SOMMER	S	P	2	R	B
116	1	1797	0	1	LUSTLOS	A	N	1	N	P
117	3	1721	0	2	PEINLICH	A	N	2	R	B
118	3	1187	0	2	KLARHEIT	S	P	2	R	B
119	1	3282	0	2	SILBERN	A	P	1	N	P
120	3	9	0	2	PARADIES	S	P	2	R	B
121	1	5996	0	1	DEKADENT	A	N	2	N	P
122	1	1618	0	1	DROHUNG	S	N	2	N	P
123	2	1238	0	1	KÜSTE	S	P	2	S	A
124	2	1253	0	2	KRAFTLOS	A	N	2	S	A
125	2	1009	0	1	STRAFE	S	N	1	S	A
126	1	3696	0	1	SKLAVE	S	N	1	N	P
127	1	2259	0	2	WARM	A	P	1	N	P
128	1	2136	0	1	ERZFEIND	S	N	1	N	P
129	3	1599	0	1	RETTER	S	P	1	R	B
130	3	1102	0	2	KOLLAPS	S	N	2	R	B
131	1	2466	0	1	ILLEGAL	A	N	2	N	P
132	1	2059	0	1	ZIELLOS	A	N	2	N	P
133	2	1785	0	2	NEIDISCH	A	N	1	S	A
134	1	2554	0	1	TODFEIND	S	N	2	N	P
135	2	2154	0	2	STABIL	A	P	1	S	A
136	2	1120	0	2	ROBUST	A	P	2	S	A
137	2	1251	0	2	TOPFIT	A	P	2	S	A
138	1	2449	0	2	INSEL	S	P	1	N	P
139	3	1997	0	2	MILITANT	A	N	2	R	B
140	1	3507	0	1	RASTLOS	A	N	2	N	P
141	2	1705	0	2	GRANDIOS	A	P	1	S	A
142	3	1613	0	2	MONSTRUM	S	N	2	R	B
143	1	2956	0	1	GEISEL	S	N	1	N	P
144	3	1277	0	1	REIZVOLL	A	P	1	R	B
145	1	2193	0	2	STILVOLL	A	P	2	N	P
146	1	1496	0	1	GREUEL	S	N	2	N	P
147	3	1194	0	2	HALBTOT	A	N	2	R	B
148	2	1201	0	2	GRAUSAM	A	N	2	S	A
149	1	1585	0	1	RASTLOS	A	N	2	N	P
150	2	1191	0	1	KOLLAPS	S	N	2	S	A
151	1	2350	0	2	SATT	A	P	2	N	P
152	2	1654	0	2	ZERLUMPT	A	N	2	S	A
153	2	925	0	1	STREIT	S	N	2	S	A
154	3	1167	0	1	SKLAVE	S	N	1	R	B
155	3	944	0	2	FREUDIG	A	P	2	R	B
156	3	1017	0	1	BODENLOS	A	N	1	R	B
157	1	1471	0	2	ZUHAUSE	S	P	1	N	P
158	1	1026	0	1	TROSTLOS	A	N	1	N	P
159	1	1481	0	1	EINSAM	A	N	1	N	P
160	2	1425	0	1	IRRSINN	S	N	1	S	A
161	2	1159	0	2	TAKTVOLL	A	P	1	S	A
162	2	1699	0	2	LOYAL	A	P	1	S	A
163	1	1603	0	1	BLUTTAT	S	N	2	N	P
164	3	1571	0	2	LEICHNAM	S	N	2	R	B
165	1	2089	0	2	RETTER	S	P	1	N	P
166	1	1414	0	1	LEPRA	S	N	1	N	P
167	3	2011	0	2	KLUGHEIT	S	P	2	R	B
168	2	1412	0	2	EHRLICH	A	P	1	S	A
169	1	1881	0	2	OPTIMAL	A	P	2	N	P
170	3	1644	0	2	PANISCH	A	N	2	R	B
171	3	1193	0	1	GEWINN	S	P	1	R	B
172	2	1215	0	2	WARM	A	P	2	S	A
173	1	1735	0	1	VERLOGEN	A	N	1	N	P
174	3	1527	0	2	TYRANN	S	N	2	R	B
175	1	2657	0	2	VITAL	A	P	2	N	P
176	1	2134	0	2	FRIEDEN	S	P	2	N	P
177	3	1373	0	1	LABIL	A	N	1	R	B
178	2	1232	0	1	GEMETZEL	S	N	1	S	A
179	1	2005	0	1	STRAFTAT	S	N	1	N	P
180	2	1409	0	1	ANGRIFF	S	N	2	S	A
181	1	1722	0	1	VERRAT	S	N	1	N	P
182	1	1156	0	1	FURCHT	S	N	1	N	P
183	2	1547	0	2	LUKRATIV	A	P	2	S	A
184	3	1253	0	1	ENERGIE	S	P	1	R	B
185	1	1103	0	2	WEISHEIT	S	P	2	N	P
186	3	1596	0	1	BANKROTT	A	N	1	R	B
187	1	1276	1	2	ÜBERFALL	S	N	1	N	P
188	1	1840	0	2	FREIHEIT	S	P	2	N	P
189	2	1067	0	1	URLAUB	S	P	2	S	A
190	2	1190	0	2	BELIEBT	A	P	1	S	A
191	3	1560	0	1	SONNABEND	S	P	1	R	B
192	3	1145	0	2	ERHOLUNG	S	P	2	R	B
193	2	1354	0	2	HEITER	A	P	1	S	A
194	3	1506	0	1	FREUDLOS	A	N	1	R	B
195	2	1462	0	1	HOFFNUNG	S	P	1	S	A
196	3	1666	0	1	TALENT	S	P	1	R	B
197	3	2349	1	2	TOPFIT	A	P	1	R	B
198	2	2439	0	2	KREATIV	A	P	1	S	A
199	3	1394	0	2	ASCHFAHL	A	N	2	R	B
200	1	1403	0	1	ZIELLOS	A	N	1	N	P
201	3	1279	0	1	OHRFEIGE	S	N	1	R	B
202	2	1132	0	2	GENIAL	A	P	1	S	A
203	3	1614	0	2	TUMOR	S	N	2	R	B
204	3	1546	0	1	ASOZIAL	A	N	1	R	B
205	2	1190	0	2	BOSHAFT	A	N	1	S	A
206	2	1427	0	1	GRANATE	S	N	2	S	A
207	3	2696	0	2	FORTUNA	S	P	2	R	B
208	1	1964	0	1	SABOTEUR	S	N	1	N	P
209	2	1155	0	2	SAUBER	A	P	2	S	A
210	1	1324	0	2	HUMOR	S	P	2	N	P
211	3	2181	0	1	KRANK	A	N	1	R	B
212	1	1660	0	2	LEBEN	S	P	2	N	P
213	2	1219	0	1	FERIEN	S	P	1	S	A
214	3	1513	0	2	GIFTGAS	S	N	2	R	B
215	1	2042	0	1	INFERNO	S	N	1	N	P
216	2	1191	0	2	FRAULICH	A	P	1	S	A
217	3	1560	0	2	FREIZEIT	S	P	2	R	B
218	1	2489	0	1	FOLTER	S	N	2	N	P
219	2	1617	0	1	ERFOLG	S	P	2	S	A
220	3	1463	0	1	ZUKUNFT	S	P	1	R	B
221	1	2659	0	2	AKTIV	A	P	1	N	P
222	2	2730	0	2	SCHLAU	A	P	2	S	A
223	1	2104	0	1	TRENNUNG	S	N	1	N	P
224	3	1330	0	1	AGGRESSION	S	N	1	R	B
225	1	2605	0	1	MACHTLOS	A	N	2	N	P
226	2	1284	0	1	MORDFALL	S	N	1	S	A
227	3	1534	0	2	UNMENSCH	S	N	2	R	B
228	2	1562	0	1	SATAN	S	N	2	S	A
229	2	1193	0	2	STARK	A	P	2	S	A
230	3	1520	0	2	UNTREUE	S	N	2	R	B
231	2	1346	0	2	LAUNISCH	A	N	2	S	A
232	1	2436	0	2	PFIFFIG	A	P	2	N	P
233	2	1376	0	1	VIRUS	S	N	1	S	A
234	1	1961	0	1	HILFLOS	A	N	1	N	P
235	3	1107	0	1	SOMMER	S	P	1	R	B
236	2	1122	0	1	PSYCHOSE	S	N	1	S	A
237	3	3277	0	2	TRAGISCH	A	N	2	R	B
238	2	1313	0	2	MILITANT	A	N	1	S	A
239	1	2715	0	2	REICH	A	P	2	N	P
240	1	2644	0	2	HARMONIE	S	P	1	N	P
241	1	1344	0	1	ALPTRAUM	S	N	2	N	P
242	2	1291	0	1	WISSEN	S	P	2	S	A
243	2	1197	0	2	FROH	A	P	2	S	A
244	3	2140	0	2	SCHLACHT	S	N	2	R	B
245	2	1669	0	2	SONNIG	A	P	2	S	A
246	3	1868	0	2	ANOMAL	A	N	2	R	B
247	3	1269	0	1	IDYLLE	S	P	1	R	B
248	3	1281	0	2	VERBOTEN	A	N	2	R	B
249	2	1094	0	1	BLUME	S	P	2	S	A
250	1	1912	0	1	TRAUMA	S	N	1	N	P
251	2	1689	0	1	BLÜTE	S	P	1	S	A
252	1	1704	0	1	MORDTAT	S	N	2	N	P
253	2	1283	0	2	BEQUEM	A	P	1	S	A
254	2	975	0	1	INSEL	S	P	1	S	A
255	3	1145	0	1	DEKADENT	A	N	1	R	B
256	1	1981	0	1	UNHEIL	S	N	2	N	P
257	3	1750	0	2	SPONTAN	A	P	2	R	B
258	3	916	0	1	STRAFE	S	N	1	R	B
259	1	1365	0	1	NEIDISCH	A	N	2	N	P
260	3	1282	0	1	PEINLICH	A	N	1	R	B
261	1	2110	0	2	LEBENDIG	A	P	1	N	P
262	1	1606	0	1	SEKTE	S	N	1	N	P
263	2	3383	0	1	TERROR	S	N	2	S	A
264	2	1001	0	2	SEEKRANK	A	N	1	S	A
265	2	874	0	2	KORRUPT	A	N	1	S	A
266	1	1397	0	2	ABENDROT	S	P	2	N	P
267	1	1034	0	2	JUBEL	S	P	2	N	P
268	1	1128	0	2	NATUR	S	P	2	N	P
269	3	1350	0	1	HUMAN	A	P	1	R	B
270	3	1647	0	2	POSITIV	A	P	2	R	B
271	1	3866	0	1	ABSTURZ	S	N	1	N	P
272	1	1598	1	1	WEISE	A	P	1	N	P
273	2	3938	0	2	ELEND	A	N	1	S	A
274	1	2885	0	2	ERFÜLLUNG	S	P	2	N	P
275	2	1335	0	1	BESTIE	S	N	1	S	A
276	2	2312	0	1	EROTIK	S	P	2	S	A
277	2	2311	0	1	KLARHEIT	S	P	1	S	A
278	1	1540	0	2	PARTY	S	P	1	N	P
279	3	1888	0	1	WEHRLOS	A	N	1	R	B
280	1	1096	0	2	GESUND	A	P	2	N	P
281	1	1586	0	1	ÜBERFALL	S	N	2	N	P
282	3	1114	0	1	BLUME	S	P	1	R	B
283	2	1211	0	2	HUMORLOS	A	N	2	S	A
284	1	1369	0	1	SEKTE	S	N	1	N	P
285	2	1661	0	2	PANISCH	A	N	2	S	A
286	1	1255	0	1	ERZFEIND	S	N	2	N	P
287	1	972	0	1	INFERNO	S	N	1	N	P
288	2	1356	0	1	ERFÜLLUNG	S	P	1	S	A
289	3	1231	0	1	ZIELLOS	A	N	1	R	B
290	1	1289	0	2	PARTY	S	P	2	N	P
291	3	1367	0	1	WEISHEIT	S	P	1	R	B
292	1	1463	0	1	TRIST	A	N	2	N	P
293	1	1003	0	1	GALGEN	S	N	1	N	P
294	2	943	0	1	BESTIE	S	N	2	S	A
295	2	891	0	2	VITAL	A	P	2	S	A
296	3	1436	0	2	UNTREUE	S	N	2	R	B
297	3	1444	0	2	HEILUNG	S	P	2	R	B
298	2	1081	0	1	KÜSTE	S	P	1	S	A
299	3	1149	0	2	SCHLACHT	S	N	2	R	B
300	2	1165	0	2	BEQUEM	A	P	2	S	A
301	3	1614	0	2	BLUTIG	A	N	2	R	B
302	3	1050	0	1	DROHUNG	S	N	1	R	B
303	2	1182	0	2	PFIFFIG	A	P	1	S	A
304	3	1111	0	1	VERBOTEN	A	N	1	R	B
305	1	1291	1	2	GEWALT	S	N	1	N	P
306	3	3654	0	2	ROBUST	A	P	2	R	B
307	2	2712	0	2	SPONTAN	A	P	2	S	A
308	3	1932	0	1	PERVERS	A	N	1	R	B
309	3	1090	0	2	VERLOGEN	A	N	2	R	B
310	2	974	0	1	OPTIMIST	S	P	2	S	A
311	2	1158	0	2	HERZLOS	A	N	1	S	A
312	3	2577	0	2	PSYCHOSE	S	N	2	R	B
313	1	2102	0	2	VATER	S	P	2	N	P
314	2	2840	0	1	NOTFALL	S	N	2	S	A
315	1	1544	0	1	GEMETZEL	S	N	1	N	P
316	3	1399	0	2	GEISEL	S	N	2	R	B
317	3	2064	0	1	GESCHENK	S	P	1	R	B
318	3	905	0	2	WAHRHEIT	S	P	2	R	B
319	2	3078	0	2	SEEKRANK	A	N	1	S	A
320	1	2200	0	1	TERROR	S	N	1	N	P
321	2	1885	0	1	ERFOLG	S	P	1	S	A
322	1	1344	0	2	NETT	A	P	2	N	P
323	2	1649	0	1	ANGRIFF	S	N	2	S	A
324	2	966	0	2	ILLEGAL	A	N	1	S	A
325	3	1889	0	2	ANMUTIG	A	P	2	R	B
326	1	1379	0	2	WISSEN	S	P	2	N	P
327	3	1241	0	1	VERRAT	S	N	1	R	B
328	3	1006	0	2	FREIZEIT	S	P	2	R	B
329	1	1352	0	2	ERHOLUNG	S	P	2	N	P
330	3	2727	0	2	GESUND	A	P	2	R	B
331	1	1313	0	2	SONNIG	A	P	1	N	P
332	1	987	0	1	UNBEQUEM	A	N	1	N	P
333	2	1537	0	2	GEMEIN	A	N	1	S	A
334	2	1236	0	2	HEITER	A	P	2	S	A
335	2	880	0	1	FRÜHJAHR	S	P	2	S	A
336	1	1620	0	1	PEINLICH	A	N	2	N	P
337	1	1588	0	2	FREUDIG	A	P	1	N	P
338	1	1163	0	1	ZWECKLOS	A	N	1	N	P
339	3	1242	0	1	PARTNER	S	P	1	R	B
340	3	1952	0	1	MACHTLOS	A	N	1	R	B
341	1	1184	0	2	STABIL	A	P	2	N	P
342	1	2878	0	2	GRANDIOS	A	P	1	N	P
343	2	3009	0	1	VERTRAUEN	S	P	1	S	A
344	1	1753	0	1	FREUDLOS	A	N	2	N	P
345	2	1649	0	1	UNHEIL	S	N	2	S	A
346	2	966	0	2	KREATIV	A	P	2	S	A
347	2	1119	0	2	FRAULICH	A	P	1	S	A
348	1	2306	0	1	PANIK	S	N	1	N	P
349	3	1289	0	2	BELIEBT	A	P	2	R	B
350	1	1358	0	1	LEPRA	S	N	2	N	P
351	2	1000	0	1	MUTTER	S	P	2	S	A
352	3	1252	0	1	ASOZIAL	A	N	1	R	B
353	1	1337	0	2	LEBEN	S	P	1	N	P
354	3	3009	0	1	SATT	A	P	1	R	B
355	1	1691	0	2	IDYLLE	S	P	2	N	P
356	1	1021	1	2	IRRSINN	S	N	2	N	P
357	3	1042	0	1	ZERLUMPT	A	N	1	R	B
358	2	1913	0	1	STRAFE	S	N	1	S	A
359	1	2456	0	1	TREULOS	A	N	1	N	P
360	2	1574	0	1	FORTUNA	S	P	1	S	A
361	1	1877	0	1	MONSTRUM	S	N	2	N	P
362	2	1258	0	2	SINNVOLL	A	P	2	S	A
363	2	1038	0	1	GREUEL	S	N	1	S	A
364	3	1147	0	2	GRANATE	S	N	2	R	B
365	3	1101	0	1	RETTER	S	P	1	R	B
366	3	961	0	2	PRACHT	S	P	2	R	B
367	1	1416	0	1	FOLTER	S	N	2	N	P
368	1	1751	0	1	ATEMNOT	S	N	1	N	P
369	1	1366	0	2	PERFEKT	A	P	1	N	P
370	2	1838	0	1	INSEL	S	P	2	S	A
371	2	1651	0	1	EROTIK	S	P	2	S	A
372	2	1496	0	2	GRATIS	A	P	2	S	A
373	1	2050	0	2	FRIEDE	S	P	1	N	P
374	3	1087	0	2	MUTIG	A	P	2	R	B
375	1	1835	0	1	UNGESUND	A	N	1	N	P
376	1	960	0	1	STRAFTAT	S	N	1	N	P
377	3	1177	0	1	SABOTEUR	S	N	1	R	B
378	2	1282	0	2	AKTIV	A	P	2	S	A
379	1	1989	0	1	ENTSETZT	A	N	2	N	P
380	3	1387	0	1	UNMENSCH	S	N	1	R	B
381	3	1674	0	1	BRILLANT	A	P	1	R	B
382	2	1814	0	1	FRIEDEN	S	P	1	S	A
383	1	1628	0	1	TOXISCH	A	N	2	N	P
384	3	1123	0	1	HOFFNUNG	S	P	1	R	B
385	1	1310	0	2	FREIHEIT	S	P	1	N	P
386	3	2285	0	1	VERTRAUT	A	P	1	R	B
387	1	1187	0	2	FANTASIE	S	P	2	N	P
388	2	1346	0	1	TRENNUNG	S	N	2	S	A
389	3	1074	0	1	STARK	A	P	1	R	B
390	1	1263	0	2	MASSAGE	S	P	1	N	P
391	2	2933	0	1	BLÜTE	S	P	2	S	A
392	3	1298	0	2	SUPER	A	P	2	R	B
393	1	1301	0	2	SONNABEND	S	P	2	N	P
394	2	1632	0	2	SAUBER	A	P	2	S	A
395	3	1430	0	1	ABSTURZ	S	N	1	R	B
396	1	2355	0	1	KRAFTLOS	A	N	2	N	P
397	2	1405	0	1	GEFÜHL	S	P	2	S	A
398	1	3148	0	2	WEIBLICH	A	P	1	N	P
399	3	2417	0	1	ELEND	A	N	1	R	B
400	1	2182	0	2	REICH	A	P	1	N	P
401	2	3919	0	2	STRAFBAR	A	N	1	S	A
402	3	1585	0	1	ANOMAL	A	N	1	R	B
403	2	1758	0	1	GEWINN	S	P	1	S	A
404	2	3830	0	2	BUNT	A	P	1	S	A
405	3	1162	0	2	PARADIES	S	P	2	R	B
406	2	1643	0	2	GRUSELIG	A	N	2	S	A
407	1	1418	0	1	REVOLVER	S	N	1	N	P
408	2	1375	0	2	STILVOLL	A	P	2	S	A
409	1	1190	0	2	MUSIK	S	P	1	N	P
410	3	1431	0	1	SILBERN	A	P	1	R	B
411	2	1371	0	2	VERWEINT	A	N	1	S	A
412	3	1331	0	1	PEINIGER	S	N	1	R	B
413	2	1285	0	1	MORDFALL	S	N	2	S	A
414	1	1336	0	1	BOSHAFT	A	N	2	N	P
415	1	1384	0	1	MASSAKER	S	N	2	N	P
416	1	983	0	2	GUTARTIG	A	P	2	N	P
417	2	1479	0	1	ZUKUNFT	S	P	1	S	A
418	2	933	0	1	ERDBEERE	S	P	1	S	A
419	3	1892	0	1	WARM	A	P	1	R	B
420	2	1745	0	2	TRAGISCH	A	N	2	S	A
