trial	condition	rt	acc	resp	word	val	gra	col	l_targ	r_targ
1	3	2689	0	1	EROTIK	S	P	2	B	R
2	1	4164	0	2	ATTENTAT	S	N	2	P	N
3	2	2756	0	2	PRACHT	S	P	1	A	S
4	3	1601	0	1	HIMMEL	S	P	2	B	R
5	1	2128	1	2	WISSEN	S	P	1	P	N
6	2	3764	0	1	PLANLOS	A	N	2	A	S
7	3	1585	0	1	GRATIS	A	P	2	B	R
8	1	2992	0	1	BLUME	S	P	2	P	N
9	2	2014	0	2	GESCHENK	S	P	2	A	S
10	3	1910	0	1	ZUHAUSE	S	P	2	B	R
11	1	4582	0	2	TRIST	A	N	2	P	N
12	2	2902	0	2	NOTFALL	S	N	1	A	S
13	1	5289	0	1	SILBERN	A	P	2	P	N
14	3	2010	0	1	PERVERS	A	N	2	B	R
15	1	3984	0	2	RASTLOS	A	N	2	P	N
16	2	2303	1	1	GEMETZEL	S	N	1	A	S
17	3	3575	0	1	BRILLANT	A	P	2	B	R
18	2	4326	0	1	HEITER	A	P	2	A	S
19	2	3272	0	2	MONSTRUM	S	N	1	A	S
20	3	1644	0	1	LOYAL	A	P	2	B	R
21	2	3270	1	1	SCHMERZ	S	N	1	A	S
22	1	2833	0	2	MORDFALL	S	N	2	P	N
23	2	5033	0	2	WEISHEIT	S	P	2	A	S
24	1	2035	0	1	WAHRHEIT	S	P	2	P	N
25	3	2136	0	1	UNBEQUEM	A	N	2	B	R
26	2	2337	0	1	VERBOTEN	A	N	1	A	S
27	3	1873	0	2	ATEMNOT	S	N	1	B	R
28	2	2516	0	2	FRÜHJAHR	S	P	1	A	S
29	1	7646	0	2	SADISMUS	S	N	1	P	N
30	1	4129	0	1	TAKTVOLL	A	P	2	P	N
31	1	1392	0	1	MUTIG	A	P	1	P	N
32	2	5425	0	1	SCHLECHT	A	N	2	A	S
33	2	2220	0	1	BOSHAFT	A	N	2	A	S
34	3	2028	0	2	ZIELLOS	A	N	1	B	R
35	2	2002	0	1	HEILFROH	A	P	2	A	S
36	3	1672	0	2	STRAFBAR	A	N	1	B	R
37	3	2457	0	1	GALGEN	S	N	2	B	R
38	3	2446	0	2	SEEKRANK	A	N	1	B	R
39	2	6483	0	1	TOXISCH	A	N	1	A	S
40	1	2109	0	1	KLARHEIT	S	P	1	P	N
41	2	2214	0	2	KIRSCHE	S	P	2	A	S
42	1	4660	0	2	LUSTLOS	A	N	2	P	N
43	2	1862	0	1	PFIFFIG	A	P	1	A	S
44	2	5893	0	2	LEPRA	S	N	2	A	S
45	3	2166	0	2	VERRAT	S	N	1	B	R
46	1	2204	0	2	HUMORLOS	A	N	2	P	N
47	3	1659	0	2	LIEB	A	P	1	B	R
48	3	2929	0	2	SPONTAN	A	P	1	B	R
49	1	3369	0	1	AKTIV	A	P	2	P	N
50	3	2617	0	1	SATAN	S	N	2	B	R
51	1	3830	0	2	ANOMAL	A	N	2	P	N
52	1	3233	1	2	TAPFER	A	P	2	P	N
53	2	5670	0	1	BLUTIG	A	N	2	A	S
54	2	1089	0	1	WEHRLOS	A	N	2	A	S
55	2	1539	1	1	UNRECHT	S	N	2	A	S
56	1	2067	0	1	TREU	A	P	1	P	N
57	1	1303	0	1	HEILUNG	S	P	1	P	N
58	1	1497	0	2	ASOZIAL	A	N	2	P	N
59	3	2207	0	1	PANISCH	A	N	2	B	R
60	3	1755	0	2	PERFEKT	A	P	1	B	R
61	1	3155	0	2	TRAURIG	A	N	2	P	N
62	1	1725	0	2	ZWECKLOS	A	N	2	P	N
63	2	2741	0	2	FREIZEIT	S	P	1	A	S
64	1	2197	0	1	ROBUST	A	P	1	P	N
65	2	4511	0	2	IDYLLE	S	P	2	A	S
66	2	2527	0	2	FRIEDE	S	P	2	A	S
67	2	1368	0	2	PARTY	S	P	1	A	S
68	1	3120	0	2	PANIK	S	N	1	P	N
69	3	2794	0	2	SCHLAU	A	P	1	B	R
70	1	2423	0	2	SABOTEUR	S	N	2	P	N
71	2	3430	0	1	FREUDIG	A	P	2	A	S
72	3	3241	0	1	ERFÜLLUNG	S	P	2	B	R
73	1	2911	0	1	FRIEDEN	S	P	2	P	N
74	3	2337	0	2	GRANDIOS	A	P	1	B	R
75	1	2377	0	2	PEINIGER	S	N	2	P	N
76	1	1274	0	1	STILVOLL	A	P	2	P	N
77	3	3267	0	1	UNFALL	S	N	2	B	R
78	2	3049	0	2	SCHLACHT	S	N	1	A	S
79	1	3500	0	2	GEISEL	S	N	2	P	N
80	2	3462	0	1	LUKRATIV	A	P	1	A	S
81	1	1705	1	2	STRAND	S	P	1	P	N
82	2	6027	0	2	FERIEN	S	P	1	A	S
83	2	5167	0	1	VERLOGEN	A	N	2	A	S
84	3	2012	0	2	HALBTOT	A	N	1	B	R
85	3	3717	0	2	STREIT	S	N	1	B	R
86	3	1990	0	1	BANKROTT	A	N	2	B	R
87	1	3650	0	1	TOPFIT	A	P	2	P	N
88	1	1696	0	2	TYRANN	S	N	1	P	N
89	1	937	0	1	STABIL	A	P	2	P	N
90	2	2826	0	2	LEICHNAM	S	N	2	A	S
91	2	1859	0	2	ABENDROT	S	P	2	A	S
92	2	1077	0	1	NEIDISCH	A	N	1	A	S
93	1	4865	0	2	ASCHFAHL	A	N	2	P	N
94	3	1717	0	2	SATT	A	P	1	B	R
95	1	3421	0	1	ZART	A	P	1	P	N
96	1	6380	0	1	SINNVOLL	A	P	2	P	N
97	3	2424	0	2	GEFAHR	S	N	1	B	R
98	2	3736	0	1	TOLL	A	P	1	A	S
99	1	3527	0	1	VERTRAUEN	S	P	2	P	N
100	3	2256	0	1	WARM	A	P	2	B	R
101	3	3963	0	1	IRRSINN	S	N	2	B	R
102	2	1924	0	2	FREUDE	S	P	1	A	S
103	1	3685	0	1	BEGABUNG	S	P	2	P	N
104	3	2413	0	2	INTRIGE	S	N	1	B	R
105	1	7861	0	2	HENKER	S	N	1	P	N
106	1	1831	0	1	REICH	A	P	1	P	N
107	3	2226	0	1	GESUND	A	P	2	B	R
108	2	2777	0	1	GRAUSAM	A	N	2	A	S
109	1	2872	0	2	KOLLAPS	S	N	2	P	N
110	2	3827	0	2	ABSTURZ	S	N	2	A	S
111	1	3671	0	2	UNHEIL	S	N	1	P	N
112	1	2057	1	2	FANTASIE	S	P	2	P	N
113	2	8759	0	2	GIFTGAS	S	N	2	A	S
114	3	5906	0	2	GEMEIN	A	N	1	B	R
115	1	4190	0	1	VATER	S	P	1	P	N
116	3	5816	0	1	EHRLICH	A	P	2	B	R
117	1	1496	0	2	HILFLOS	A	N	1	P	N
118	1	2386	0	2	INFERNO	S	N	2	P	N
119	2	2567	0	1	WEISE	A	P	2	A	S
120	2	1103	0	1	LIEBLOS	A	N	2	A	S
121	3	1560	0	2	TOLERANT	A	P	1	B	R
122	3	2099	0	1	GEWINN	S	P	2	B	R
123	2	6212	0	2	UNMENSCH	S	N	2	A	S
124	3	7008	0	1	FROH	A	P	2	B	R
125	2	3367	0	1	BEQUEM	A	P	1	A	S
126	3	1630	0	1	VIRUS	S	N	2	B	R
127	3	988	0	1	ZUKUNFT	S	P	2	B	R
128	2	2089	0	2	OHRFEIGE	S	N	2	A	S
129	3	2628	0	1	SINNLICH	A	P	2	B	R
130	1	3275	0	1	NETT	A	P	2	P	N
131	3	7029	0	2	VITAL	A	P	1	B	R
132	2	6208	0	1	LEBLOS	A	N	2	A	S
133	3	2707	0	1	HOFFNUNG	S	P	2	B	R
134	3	3927	0	2	SONNIG	A	P	1	B	R
135	2	2281	0	2	MASSAKER	S	N	2	A	S
136	2	1491	0	1	ENTSETZT	A	N	2	A	S
137	3	2335	0	1	POSITIV	A	P	2	B	R
138	1	6816	0	2	ELEND	A	N	1	P	N
139	2	3786	0	2	SEKTE	S	N	2	A	S
140	1	5537	0	2	BESTIE	S	N	1	P	N
141	1	2872	0	2	SCHLACHT	S	N	2	P	N
142	3	2265	0	2	ERFÜLLUNG	S	P	1	B	R
143	2	1910	0	2	HIMMEL	S	P	1	A	S
144	1	2071	0	2	UNFALL	S	N	1	P	N
145	2	2834	0	2	GREUEL	S	N	2	A	S
146	1	3983	0	1	RETTER	S	P	1	P	N
147	1	1673	0	1	SILBERN	A	P	1	P	N
148	2	3731	0	1	BANKROTT	A	N	1	A	S
149	3	2737	0	2	AGGRESSION	S	N	1	B	R
150	1	3275	0	1	BELIEBT	A	P	1	P	N
151	3	2967	0	2	MUTTER	S	P	1	B	R
152	1	2959	0	1	WEIBLICH	A	P	2	P	N
153	1	4998	0	2	VERLETZT	A	N	2	P	N
154	2	3851	0	1	WARM	A	P	1	A	S
155	2	1767	0	1	SCHLECHT	A	N	2	A	S
156	3	2276	0	1	PARADIES	S	P	2	B	R
157	3	2840	0	1	TREULOS	A	N	2	B	R
158	2	5262	0	1	SCHLAU	A	P	2	A	S
159	3	2313	0	1	GEWALT	S	N	2	B	R
160	2	2674	0	2	MASSAGE	S	P	2	A	S
161	3	2415	0	2	MUTIG	A	P	1	B	R
162	3	2547	0	1	BEFREIUNG	S	P	2	B	R
163	2	2315	0	2	MORDFALL	S	N	2	A	S
164	3	3540	0	1	SKLAVE	S	N	2	B	R
165	1	2668	0	1	TOLL	A	P	1	P	N
166	3	1432	0	2	NETT	A	P	1	B	R
167	2	1727	0	2	KÜSTE	S	P	2	A	S
168	3	1990	0	1	SEKTE	S	N	2	B	R
169	3	2841	0	2	TAKTVOLL	A	P	1	B	R
170	2	2259	0	2	GEWINN	S	P	1	A	S
171	2	1839	0	2	PARTNER	S	P	1	A	S
172	3	1980	0	2	INTRIGE	S	N	1	B	R
173	1	4499	0	2	RASTLOS	A	N	2	P	N
174	2	6347	0	1	VERLOGEN	A	N	1	A	S
175	1	5866	0	2	BODENLOS	A	N	2	P	N
176	3	2167	0	1	WISSEN	S	P	2	B	R
177	3	1268	0	2	VERRAT	S	N	1	B	R
178	3	847	0	1	TAPFER	A	P	2	B	R
179	2	1512	0	2	NOTFALL	S	N	1	A	S
180	1	2057	0	1	TOLERANT	A	P	1	P	N
181	2	6388	0	2	ERZFEIND	S	N	2	A	S
182	1	2946	0	1	SPONTAN	A	P	1	P	N
183	2	6201	0	2	FREIHEIT	S	P	1	A	S
184	2	1814	0	1	LEBLOS	A	N	2	A	S
185	3	2156	0	2	SADISMUS	S	N	1	B	R
186	1	4597	0	2	TUMOR	S	N	2	P	N
187	3	4451	0	1	FREUDLOS	A	N	2	B	R
188	3	955	0	1	GIFTGAS	S	N	2	B	R
189	1	2680	0	2	PERVERS	A	N	1	P	N
190	3	3968	0	2	ENTSETZT	A	N	1	B	R
191	1	1682	0	1	VERTRAUT	A	P	1	P	N
192	1	891	0	1	NATUR	S	P	1	P	N
193	2	1733	0	1	KRAFTLOS	A	N	2	A	S
194	2	1178	0	1	NEIDISCH	A	N	1	A	S
195	2	1103	0	2	IRRSINN	S	N	1	A	S
196	1	1642	0	1	AKTIV	A	P	1	P	N
197	1	906	1	1	ELEND	A	N	1	P	N
198	1	828	1	1	LAUNISCH	A	N	2	P	N
199	3	2272	0	2	TROSTLOS	A	N	1	B	R
200	3	2101	0	2	SAUBER	A	P	1	B	R
201	1	2632	0	1	ZUKUNFT	S	P	2	P	N
202	1	1074	0	2	UNRECHT	S	N	1	P	N
203	2	1768	0	1	FREUDIG	A	P	1	A	S
204	1	2456	0	2	LUSTLOS	A	N	1	P	N
205	2	1676	0	2	STREIT	S	N	1	A	S
206	2	1910	0	1	KREATIV	A	P	1	A	S
207	2	2555	0	1	GEMEIN	A	N	2	A	S
208	1	1913	0	2	VERWEINT	A	N	2	P	N
209	3	4205	0	2	TRIST	A	N	1	B	R
210	1	4409	0	2	GIERIG	A	N	2	P	N
211	3	7920	0	2	ABSTURZ	S	N	1	B	R
212	1	3421	0	1	ABENDROT	S	P	1	P	N
213	2	5970	0	1	ASCHFAHL	A	N	2	A	S
214	3	1769	0	2	DROHUNG	S	N	1	B	R
215	1	3415	0	1	VERTRAUEN	S	P	2	P	N
216	2	2910	0	2	SATAN	S	N	1	A	S
217	3	4031	0	2	HEILFROH	A	P	1	B	R
218	1	4116	0	1	GENIAL	A	P	2	P	N
219	2	3426	0	2	UNMENSCH	S	N	1	A	S
220	3	4225	0	2	PFIFFIG	A	P	1	B	R
221	1	2596	0	1	FREUDE	S	P	2	P	N
222	2	2162	0	2	GEISEL	S	N	2	A	S
223	1	3522	0	2	VERBOTEN	A	N	1	P	N
224	3	4343	0	2	UNGESUND	A	N	1	B	R
225	1	2557	0	1	ROBUST	A	P	1	P	N
226	2	3814	0	1	TOPFIT	A	P	1	A	S
227	3	1929	0	1	ZART	A	P	2	B	R
228	2	9963	0	2	URLAUB	S	P	2	A	S
229	2	1664	0	1	TRAGISCH	A	N	2	A	S
230	3	7859	0	2	ANGRIFF	S	N	1	B	R
231	2	2469	0	2	GEMETZEL	S	N	2	A	S
232	1	6434	0	2	GALGEN	S	N	1	P	N
233	2	6302	0	2	IDYLLE	S	P	2	A	S
234	1	2502	0	2	PEINLICH	A	N	1	P	N
235	3	1589	0	2	FRIEDE	S	P	1	B	R
236	2	2719	0	1	MILITANT	A	N	1	A	S
237	3	1918	0	2	BEGABUNG	S	P	1	B	R
238	2	2417	0	2	HARMONIE	S	P	1	A	S
239	1	2573	0	1	ENERGIE	S	P	2	P	N
240	1	1949	0	2	HALBTOT	A	N	1	P	N
241	1	3591	0	1	ZUHAUSE	S	P	2	P	N
242	2	2236	0	1	LABIL	A	N	2	A	S
243	2	4137	0	2	FREUND	S	P	1	A	S
244	3	1907	0	2	FURCHT	S	N	1	B	R
245	2	3845	0	2	HUMOR	S	P	1	A	S
246	2	5048	0	1	PRIMA	A	P	2	A	S
247	3	2924	0	2	TRAURIG	A	N	1	B	R
248	1	3291	0	1	ANMUTIG	A	P	1	P	N
249	3	2231	0	2	TREU	A	P	1	B	R
250	1	1930	1	1	ALPTRAUM	S	N	1	P	N
251	1	1199	0	1	EHRLICH	A	P	1	P	N
252	3	2434	0	1	HERZLOS	A	N	2	B	R
253	2	2983	0	2	PEINIGER	S	N	1	A	S
254	1	2447	0	2	ZERLUMPT	A	N	1	P	N
255	2	2347	0	1	REICH	A	P	1	A	S
256	1	7773	0	2	UNFAIR	A	N	1	P	N
257	2	2384	0	1	LUKRATIV	A	P	1	A	S
258	2	2007	0	1	WEHRLOS	A	N	2	A	S
259	3	3368	0	2	LEBEN	S	P	1	B	R
260	3	3284	0	2	TOXISCH	A	N	1	B	R
261	3	1311	0	2	ZWECKLOS	A	N	1	B	R
262	1	1708	0	1	GEFÜHL	S	P	2	P	N
263	1	2643	0	1	WEISE	A	P	2	P	N
264	1	2441	0	1	BLÜTE	S	P	2	P	N
265	2	8482	0	1	HILFLOS	A	N	2	A	S
266	2	2108	0	2	GEFAHR	S	N	2	A	S
267	2	2003	0	1	LIEBLOS	A	N	2	A	S
268	1	1485	0	1	SOMMER	S	P	2	P	N
269	3	1812	0	2	GRATIS	A	P	1	B	R
270	1	1803	0	1	LOYAL	A	P	1	P	N
271	1	1200	0	1	TOLERANZ	S	P	2	P	N
272	3	2549	0	1	PANISCH	A	N	2	B	R
273	2	2727	0	1	ASOZIAL	A	N	1	A	S
274	1	2204	0	2	MORDTAT	S	N	2	P	N
275	3	4232	0	1	WAHRHEIT	S	P	2	B	R
276	3	1379	0	1	BOSHAFT	A	N	2	B	R
277	2	1772	0	1	SINNVOLL	A	P	2	A	S
278	1	1000	1	1	PLANLOS	A	N	2	P	N
279	3	5990	0	1	DEKADENT	A	N	2	B	R
280	1	2066	0	1	FANTASIE	S	P	1	P	N
281	3	2565	0	1	SKLAVE	S	N	2	B	R
282	3	1633	0	2	ANOMAL	A	N	1	B	R
283	3	1087	0	2	ZUHAUSE	S	P	1	B	R
284	2	2635	1	2	TOPFIT	A	P	2	A	S
285	1	2047	0	2	ATTENTAT	S	N	2	P	N
286	2	4421	0	2	FREUND	S	P	1	A	S
287	1	1895	0	1	VITAL	A	P	2	P	N
288	2	4268	0	2	KLARHEIT	S	P	1	A	S
289	2	1862	0	1	BRUTAL	A	N	1	A	S
290	3	1596	0	2	GEMETZEL	S	N	1	B	R
291	1	1804	0	1	KÜSTE	S	P	1	P	N
292	3	2568	0	1	ZWECKLOS	A	N	2	B	R
293	3	1777	0	2	IRRSINN	S	N	1	B	R
294	1	1340	1	1	TRAURIG	A	N	1	P	N
295	3	3275	0	1	FORTUNA	S	P	2	B	R
296	1	3252	0	1	LEBENDIG	A	P	2	P	N
297	1	1066	0	2	LEBLOS	A	N	1	P	N
298	2	5822	0	1	POSITIV	A	P	1	A	S
299	2	1322	0	2	SOMMER	S	P	1	A	S
300	2	2753	0	1	BLUTIG	A	N	2	A	S
301	1	1513	0	2	GIFTGAS	S	N	2	P	N
302	1	1725	0	1	TAPFER	A	P	1	P	N
303	1	1581	0	1	ZUKUNFT	S	P	1	P	N
304	3	2343	0	2	UNFALL	S	N	1	B	R
305	3	3133	0	1	RASTLOS	A	N	2	B	R
306	1	2856	0	2	STRAFBAR	A	N	2	P	N
307	1	5348	0	2	SCHLECHT	A	N	1	P	N
308	2	3256	0	2	BEGABUNG	S	P	2	A	S
309	1	4644	0	2	HALBTOT	A	N	1	P	N
310	2	2313	0	2	VATER	S	P	1	A	S
311	2	1538	0	1	PANISCH	A	N	1	A	S
312	2	1108	0	2	REVOLVER	S	N	2	A	S
313	1	2991	0	1	BUNT	A	P	1	P	N
314	3	3404	0	1	NETT	A	P	2	B	R
315	1	5716	0	1	GEFÜHL	S	P	1	P	N
316	1	1418	0	2	ANGRIFF	S	N	2	P	N
317	3	4722	0	2	LIEB	A	P	1	B	R
318	2	1811	0	2	AGGRESSION	S	N	1	A	S
319	1	1849	0	1	WISSEN	S	P	2	P	N
320	2	2411	0	1	STILVOLL	A	P	2	A	S
321	1	2146	0	2	BLUTTAT	S	N	1	P	N
322	1	2061	0	2	PEINIGER	S	N	2	P	N
323	2	3638	0	1	BOSHAFT	A	N	1	A	S
324	3	1627	0	2	PFIFFIG	A	P	1	B	R
325	1	2192	0	1	ENERGIE	S	P	2	P	N
326	3	1663	0	2	PANIK	S	N	1	B	R
327	1	2139	0	2	KRANK	A	N	1	P	N
328	1	1660	0	1	FREIZEIT	S	P	1	P	N
329	2	1793	0	2	ERZFEIND	S	N	2	A	S
330	2	2206	0	1	LIEBLOS	A	N	2	A	S
331	3	4184	0	2	MUTIG	A	P	1	B	R
332	3	1389	0	2	TRIST	A	N	1	B	R
333	2	1734	0	1	SUPER	A	P	1	A	S
334	3	1679	0	2	TREU	A	P	1	B	R
335	2	1944	0	2	IDYLLE	S	P	1	A	S
336	3	2098	0	1	LEPRA	S	N	2	B	R
337	3	1500	0	2	FRIEDE	S	P	1	B	R
338	2	1569	0	2	BLUME	S	P	2	A	S
339	3	5614	0	1	ZERLUMPT	A	N	2	B	R
340	1	1525	0	2	GEFAHR	S	N	1	P	N
341	3	2190	0	2	TROSTLOS	A	N	1	B	R
342	2	1966	0	2	NATUR	S	P	2	A	S
343	3	2395	0	1	VIRUS	S	N	2	B	R
344	3	2170	0	2	FOLTER	S	N	1	B	R
345	2	2146	0	2	ERHOLUNG	S	P	1	A	S
346	2	2604	0	1	FREUDIG	A	P	2	A	S
347	3	2600	0	1	STRAFE	S	N	2	B	R
348	1	1736	0	1	WARM	A	P	2	P	N
349	2	5423	0	1	ASCHFAHL	A	N	2	A	S
350	1	4604	0	1	BEFREIUNG	S	P	2	P	N
351	2	1360	0	2	PARADIES	S	P	1	A	S
352	3	4673	0	1	WEIBLICH	A	P	2	B	R
353	1	2741	0	2	PSYCHOSE	S	N	1	P	N
354	3	2213	0	2	INTRIGE	S	N	1	B	R
355	1	2804	0	2	EINSAM	A	N	2	P	N
356	1	1880	0	1	STABIL	A	P	1	P	N
357	3	2140	0	2	INSEL	S	P	1	B	R
358	2	2348	0	1	FRAULICH	A	P	1	A	S
359	1	1613	0	1	KREATIV	A	P	2	P	N
360	2	2874	0	1	TAKTVOLL	A	P	1	A	S
361	1	1345	0	1	MUSIK	S	P	2	P	N
362	2	2615	0	1	MACHTLOS	A	N	2	A	S
363	2	2078	0	2	RETTER	S	P	1	A	S
364	3	6009	0	1	TRENNUNG	S	N	2	B	R
365	3	1149	0	1	BEQUEM	A	P	2	B	R
366	3	959	0	2	ENTSETZT	A	N	1	B	R
367	1	2605	0	1	HUMAN	A	P	1	P	N
368	1	1518	0	2	KOLLAPS	S	N	1	P	N
369	1	1637	0	2	ASOZIAL	A	N	1	P	N
370	2	4259	0	1	VERTRAUT	A	P	1	A	S
371	2	1592	0	1	GESUND	A	P	1	A	S
372	2	1421	0	1	SEEKRANK	A	N	2	A	S
373	1	2558	0	2	ATEMNOT	S	N	2	P	N
374	3	2389	0	2	TOXISCH	A	N	1	B	R
375	1	3809	0	1	HARMONIE	S	P	2	P	N
376	1	1161	0	1	WERTVOLL	A	P	2	P	N
377	3	3170	0	2	GREUEL	S	N	1	B	R
378	2	3626	0	2	WAHRHEIT	S	P	1	A	S
379	1	2596	0	1	VERTRAUEN	S	P	2	P	N
380	3	2237	0	2	BLÜTE	S	P	1	B	R
381	3	1490	0	2	GRUSELIG	A	N	1	B	R
382	2	556	0	2	GEWINN	S	P	1	A	S
383	1	3676	0	2	UNFAIR	A	N	2	P	N
384	3	2425	0	1	ÜBERFALL	S	N	2	B	R
385	1	2596	0	1	LEBEN	S	P	1	P	N
386	3	2292	0	2	EROTIK	S	P	1	B	R
387	1	3154	0	1	ERDBEERE	S	P	2	P	N
388	2	1888	0	1	TRAGISCH	A	N	1	A	S
389	3	1866	0	1	SPRITZIG	A	P	2	B	R
390	1	2509	0	2	PERVERS	A	N	2	P	N
391	2	5624	0	1	VERBOTEN	A	N	1	A	S
392	3	2930	0	1	MASSAGE	S	P	2	B	R
393	1	6955	0	2	TODFEIND	S	N	1	P	N
394	2	3864	0	2	HUMOR	S	P	2	A	S
395	3	4237	0	2	PARTNER	S	P	1	B	R
396	1	2497	0	1	TOLL	A	P	1	P	N
397	2	3393	0	2	SEKTE	S	N	1	A	S
398	1	8617	0	2	UNMENSCH	S	N	2	P	N
399	3	2034	0	2	MASSAKER	S	N	1	B	R
400	1	5647	0	2	ABSTURZ	S	N	1	P	N
401	2	2620	0	1	GENIAL	A	P	1	A	S
402	3	2079	0	2	VERRAT	S	N	1	B	R
403	2	2749	1	2	ELEND	A	N	1	A	S
404	2	1774	0	2	FRÜHJAHR	S	P	2	A	S
405	3	1740	0	2	SABOTEUR	S	N	1	B	R
406	2	1973	0	1	LOYAL	A	P	1	A	S
407	1	1903	0	1	MUTTER	S	P	1	P	N
408	2	1986	0	2	SATAN	S	N	2	A	S
409	1	1438	0	1	SINNLICH	A	P	2	P	N
410	3	1628	0	1	SILBERN	A	P	2	B	R
411	2	2545	0	1	DEKADENT	A	N	1	A	S
412	3	3715	0	2	PLANLOS	A	N	1	B	R
413	2	6828	0	1	SCHLAU	A	P	1	A	S
414	1	1277	0	1	SONNIG	A	P	1	P	N
415	1	1434	0	2	SCHLACHT	S	N	2	P	N
416	1	983	0	2	MORDFALL	S	N	1	P	N
417	2	1616	0	1	NEIDISCH	A	N	2	A	S
418	2	1525	0	1	EHRLICH	A	P	1	A	S
419	3	1577	0	2	WEHRLOS	A	N	1	B	R
420	2	1950	0	1	BRILLANT	A	P	2	A	S
