response	response_time	trial_ISI	trial_shape
space	518	1500	red_square
None	0	1500	green_star
None	0	1000	yellow_circle
None	0	2500	blue_star
None	0	1000	blue_triangle
None	0	1000	blue_circle
None	0	2500	blue_circle
space	495	2000	red_square
None	0	1000	red_circle
None	0	2500	red_star
None	0	2000	red_circle
None	0	1500	green_star
None	0	1500	yellow_square
None	0	2000	green_star
None	0	1000	red_triangle
None	0	2000	blue_square
None	0	1000	green_square
space	419	2500	red_square
None	0	2000	yellow_circle
None	0	1000	green_square
None	0	2500	yellow_circle
None	0	1000	green_square
None	0	1000	red_triangle
space	419	2500	red_square
None	0	2500	red_star
None	0	1500	red_circle
space	511	2500	red_square
None	0	1000	blue_square
None	0	2000	red_star
None	0	2500	yellow_triangle
None	0	1000	green_square
None	0	1000	blue_star
None	0	2500	blue_circle
None	0	1500	yellow_circle
space	503	1500	red_square
None	0	1500	blue_triangle
None	0	1000	blue_star
None	0	2000	green_star
space	382	2500	red_square
None	0	2000	red_square
None	0	2500	blue_square
None	0	2000	yellow_circle
space	428	2500	red_square
None	0	2000	blue_circle
None	0	1500	blue_square
space	459	2500	red_square
None	0	1000	yellow_square
None	0	1500	yellow_circle
space	376	2000	red_square
space	577	2000	red_square
None	0	2500	yellow_star
space	426	2000	red_square
space	464	2000	red_square
None	0	2000	red_triangle
space	418	2500	red_square
None	0	1500	green_circle
None	0	2000	blue_square
None	0	1500	yellow_star
space	429	2000	red_square
None	0	2000	yellow_circle
None	0	2000	green_square
space	490	2500	red_square
None	0	1000	red_star
None	0	2500	green_triangle
space	369	2000	red_square
None	0	2500	red_star
space	334	2000	red_square
None	0	1000	red_circle
None	0	1500	blue_square
None	0	2500	blue_star
None	0	1000	red_circle
space	463	1500	red_square
None	0	2500	blue_square
None	0	2500	blue_triangle
None	0	2500	green_square
space	506	1500	red_square
None	0	1000	green_circle
None	0	2000	blue_circle
None	0	1500	red_star
None	0	1000	red_triangle
space	408	2000	red_square
None	0	1500	blue_square
space	460	1500	red_square
space	550	1500	red_square
None	0	1500	blue_square
space	416	1000	red_square
None	0	2500	blue_triangle
None	0	1500	blue_square
None	0	2000	green_square
None	0	2500	red_circle
space	401	2000	red_square
None	0	2000	yellow_triangle
space	440	1500	red_square
space	572	1000	red_square
None	0	1000	yellow_square
None	0	2500	blue_circle
None	0	1500	yellow_triangle
None	0	2500	yellow_square
None	0	1000	yellow_triangle
None	0	1000	blue_star
None	0	1000	red_triangle
space	365	2500	red_square
None	0	1000	green_circle
None	0	1500	green_circle
None	0	2500	yellow_circle
None	0	2000	blue_square
None	0	1500	red_triangle
None	0	2500	blue_triangle
space	696	1500	red_square
None	0	1000	green_circle
None	0	1500	yellow_square
None	0	2000	yellow_star
None	0	1500	yellow_square
None	0	2000	blue_triangle
space	498	1500	red_square
space	490	1500	red_square
None	0	2500	yellow_square
None	0	2000	yellow_triangle
None	0	1500	green_circle
None	0	2000	red_triangle
None	0	2000	blue_square
None	0	2500	blue_star
space	438	2000	red_square
None	0	2500	green_star
space	449	2500	red_square
None	0	1500	yellow_square
None	0	2500	red_triangle
None	0	1000	yellow_triangle
None	0	1500	red_circle
None	0	1000	blue_triangle
space	379	2000	red_square
space	646	2000	red_square
None	0	2500	blue_circle
space	435	1000	red_square
None	0	1000	yellow_star
space	494	1500	red_square
None	0	2000	red_circle
space	427	1000	red_square
None	0	1000	red_triangle
space	470	1000	red_square
None	0	1500	green_square
None	0	2500	green_triangle
None	0	1500	red_star
None	0	1500	red_star
space	438	2000	red_square
None	0	1500	red_circle
space	408	2500	red_square
None	0	2500	green_circle
None	0	1000	blue_triangle
None	0	1000	green_square
None	0	2000	green_star
space	537	1000	red_square
space	638	2500	red_square
None	0	2500	blue_square
None	0	2000	green_star
None	0	2500	red_star
None	0	1500	green_circle
space	425	1500	red_square
None	0	2500	blue_star
space	391	1500	red_square
None	0	1500	yellow_square
space	426	1000	red_square
None	0	1500	green_circle
None	0	1500	green_circle
None	0	2500	green_square
None	0	1000	blue_star
None	0	1500	red_circle
space	579	2000	red_square
None	0	1500	green_triangle
space	557	2000	red_square
None	0	1500	red_star
space	431	2000	red_square
space	375	1500	red_square
space	333	2500	red_square
space	367	2500	red_square
None	0	1500	red_star
None	0	1500	red_triangle
None	0	2500	red_circle
None	0	2500	green_square
None	0	2500	green_star
space	461	2000	red_square
None	0	2000	red_square
None	0	1000	yellow_triangle
None	0	1000	blue_triangle
None	0	2000	red_circle
None	0	1500	red_triangle
None	0	2500	yellow_star
space	545	2000	red_square
None	0	2000	green_square
space	433	2500	red_square
None	0	2000	red_circle
None	0	1000	red_star
space	471	1000	red_square
space	881	1500	red_square
space	593	2000	red_square
None	0	2000	red_triangle
None	0	1500	blue_square
None	0	2500	green_triangle
space	524	2000	red_square
space	397	1000	red_square
space	527	2000	red_square
None	0	2500	blue_circle
None	0	1000	blue_triangle
space	470	1500	red_square
None	0	1000	yellow_triangle
None	0	1000	red_star
None	0	1000	green_triangle
space	405	2000	red_square
None	0	2000	yellow_square
None	0	2500	red_triangle
None	0	1000	green_square
None	0	1500	yellow_triangle
None	0	2000	yellow_circle
None	0	2500	red_triangle
None	0	1500	red_triangle
space	563	1500	red_square
None	0	1500	green_triangle
None	0	1000	red_star
space	413	2000	red_square
None	0	2000	yellow_circle
None	0	1000	green_triangle
None	0	2500	yellow_star
space	367	1000	red_square
None	0	1500	red_circle
None	0	2500	red_star
space	458	1500	red_square
None	0	1000	blue_star
space	491	1000	red_square
None	0	2000	green_square
None	0	1500	green_square
None	0	1500	green_triangle
None	0	2000	blue_star
space	439	2000	red_square
None	0	2000	red_circle
None	0	2000	red_circle
None	0	1000	yellow_square
None	0	2500	yellow_triangle
None	0	2500	yellow_star
None	0	1500	yellow_square
None	0	1000	green_star
None	0	1000	yellow_square
None	0	2000	yellow_square
None	0	2500	yellow_star
None	0	2500	yellow_square
None	0	2500	red_square
None	0	2000	green_star
None	0	1500	red_circle
None	0	1500	blue_square
space	496	2000	red_square
None	0	1500	red_circle
None	0	2500	green_star
None	0	2000	red_circle
space	452	1500	red_square
space	497	2500	red_square
None	0	2000	yellow_circle
space	467	1000	red_square
None	0	2000	blue_triangle
None	0	2500	blue_square
None	0	2000	red_star
space	429	1500	red_square
None	0	1500	blue_square
space	724	1500	red_square
None	0	1000	yellow_star
None	0	2500	red_triangle
None	0	1500	yellow_triangle
None	0	1500	yellow_square
None	0	1000	red_star
None	0	2000	blue_circle
None	0	1000	blue_circle
space	517	2000	red_square
None	0	1000	yellow_square
None	0	1500	green_triangle
space	478	1000	red_square
space	529	1500	red_square
None	0	1000	blue_star
space	463	2000	red_square
None	0	1000	yellow_star
None	0	1000	green_square
None	0	2000	red_star
None	0	1500	blue_circle
space	532	1000	red_square
None	0	1000	blue_square
None	0	2500	blue_square
None	0	2500	green_triangle
None	0	1000	green_square
None	0	1500	red_triangle
space	422	2500	red_square
None	0	1500	green_square
None	0	1000	yellow_star
None	0	1500	blue_star
space	436	2000	red_square
None	0	1000	yellow_circle
None	0	1500	red_star
space	439	2000	red_square
None	0	1000	green_triangle
space	378	1000	red_square
space	442	1500	red_square
None	0	2000	green_circle
None	0	2000	blue_circle
None	0	2000	green_triangle
None	0	1000	green_circle
space	392	2500	red_square
space	347	1000	yellow_square
space	614	1000	red_square
space	662	1000	red_square
space	532	2500	red_square
None	0	2500	red_triangle
None	0	2500	blue_triangle
None	0	2500	blue_triangle
None	0	1000	yellow_triangle
None	0	2000	green_star
space	528	2500	red_square
space	557	1000	red_square
None	0	2500	blue_star
None	0	2500	yellow_star
None	0	2500	green_triangle
None	0	2000	green_circle
space	503	2500	red_square
None	0	1000	red_square
space	0	2500	yellow_square
