trial	condition	rt	acc	resp	word	val	gra	col	l_targ	r_targ
1	1	2463	0	1	BUNT	A	P	2	P	N
2	3	1520	0	2	OHRFEIGE	S	N	2	R	B
3	2	1905	0	2	FORTUNA	S	P	1	A	S
4	1	1968	0	2	AGGRESSION	S	N	2	P	N
5	2	1558	0	1	ASOZIAL	A	N	2	A	S
6	1	2128	0	2	HILFLOS	A	N	1	P	N
7	1	1145	0	2	GREUEL	S	N	2	P	N
8	2	1492	0	2	BESTIE	S	N	2	A	S
9	3	1535	0	1	OPTIMAL	A	P	1	R	B
10	1	1371	0	1	ENERGIE	S	P	2	P	N
11	3	1547	0	2	LOYAL	A	P	2	R	B
12	1	2993	0	2	LEBLOS	A	N	1	P	N
13	1	2891	0	1	STRAND	S	P	1	P	N
14	2	1968	0	2	PANIK	S	N	1	A	S
15	2	2058	0	2	GRANATE	S	N	1	A	S
16	3	1801	0	2	SPONTAN	A	P	2	R	B
17	3	970	0	2	FRAULICH	A	P	2	R	B
18	2	2610	0	2	FRIEDE	S	P	2	A	S
19	3	4409	0	1	MORDTAT	S	N	1	R	B
20	2	1496	0	1	FROH	A	P	1	A	S
21	3	1836	0	2	MUSIK	S	P	2	R	B
22	3	4186	1	2	MILITANT	A	N	1	R	B
23	2	1131	0	1	ILLEGAL	A	N	2	A	S
24	3	4683	0	1	SINNVOLL	A	P	1	R	B
25	1	2455	0	1	PRIMA	A	P	1	P	N
26	3	1388	0	2	INFERNO	S	N	2	R	B
27	2	1625	0	2	ZUKUNFT	S	P	2	A	S
28	3	4363	0	1	HEILFROH	A	P	1	R	B
29	3	1437	0	2	NETT	A	P	2	R	B
30	2	2202	0	1	ZWECKLOS	A	N	1	A	S
31	2	1121	0	1	LUSTLOS	A	N	1	A	S
32	3	2001	0	2	HALBTOT	A	N	2	R	B
33	1	1714	0	2	PERVERS	A	N	2	P	N
34	2	1102	0	1	BLUTIG	A	N	2	A	S
35	1	2123	0	2	VERBOTEN	A	N	2	P	N
36	2	1843	0	2	SABOTEUR	S	N	2	A	S
37	3	1645	0	1	HEITER	A	P	1	R	B
38	1	2147	0	1	GENIAL	A	P	2	P	N
39	3	1366	0	2	IDYLLE	S	P	2	R	B
40	1	2511	0	2	GEMETZEL	S	N	2	P	N
41	1	2254	0	2	STRAFBAR	A	N	1	P	N
42	3	1622	0	2	GRANDIOS	A	P	2	R	B
43	2	1672	0	2	ERDBEERE	S	P	1	A	S
44	1	3516	0	2	DEKADENT	A	N	1	P	N
45	2	1301	0	1	TREU	A	P	2	A	S
46	1	3091	0	1	HUMAN	A	P	2	P	N
47	2	2155	0	1	SATT	A	P	1	A	S
48	2	1482	0	2	EROTIK	S	P	2	A	S
49	3	1745	0	2	PRACHT	S	P	2	R	B
50	3	1552	0	1	PEINLICH	A	N	1	R	B
51	3	1825	0	2	EINSAM	A	N	2	R	B
52	1	1440	0	2	TUMOR	S	N	2	P	N
53	1	1892	0	2	ENTSETZT	A	N	2	P	N
54	1	1800	0	2	ATTENTAT	S	N	2	P	N
55	2	1682	0	1	TAKTVOLL	A	P	1	A	S
56	2	1244	0	2	TODFEIND	S	N	1	A	S
57	2	1241	0	1	GRUSELIG	A	N	1	A	S
58	1	3223	0	1	ERFÜLLUNG	S	P	1	P	N
59	3	1684	0	2	EHRLICH	A	P	2	R	B
60	1	2059	0	2	NOTFALL	S	N	2	P	N
61	1	1159	0	2	STREIT	S	N	2	P	N
62	3	1004	0	1	GEWINN	S	P	1	R	B
63	2	1360	0	2	KLUGHEIT	S	P	2	A	S
64	1	2302	0	2	TRAGISCH	A	N	1	P	N
65	3	2997	0	2	ANGRIFF	S	N	2	R	B
66	3	1426	0	2	BLÜTE	S	P	2	R	B
67	2	1285	0	1	PFIFFIG	A	P	2	A	S
68	1	3139	0	2	LABIL	A	N	2	P	N
69	3	1856	0	2	MUTIG	A	P	2	R	B
70	1	1843	0	2	ALPTRAUM	S	N	2	P	N
71	3	1442	0	1	LEICHNAM	S	N	1	R	B
72	3	1206	0	1	PERFEKT	A	P	1	R	B
73	3	1033	0	1	VERLOGEN	A	N	1	R	B
74	2	1732	0	2	LEPRA	S	N	2	A	S
75	1	2447	0	2	HUMORLOS	A	N	1	P	N
76	2	1506	0	1	UNFAIR	A	N	1	A	S
77	1	3361	0	2	SCHLECHT	A	N	2	P	N
78	2	1469	0	1	SCHLAU	A	P	2	A	S
79	2	1325	0	2	VIRUS	S	N	1	A	S
80	3	1816	0	1	KIRSCHE	S	P	1	R	B
81	1	2511	0	1	LUKRATIV	A	P	1	P	N
82	3	1893	1	2	FREIHEIT	S	P	1	R	B
83	3	2379	0	2	STRAFTAT	S	N	2	R	B
84	1	2364	0	1	FREUDE	S	P	1	P	N
85	3	1632	0	2	UNBEQUEM	A	N	2	R	B
86	1	2056	0	1	REICH	A	P	1	P	N
87	1	2406	0	1	ABENDROT	S	P	1	P	N
88	2	1874	0	1	ZART	A	P	2	A	S
89	2	813	0	2	REVOLVER	S	N	2	A	S
90	2	1010	0	2	SCHLACHT	S	N	1	A	S
91	1	1428	0	1	WEISHEIT	S	P	1	P	N
92	1	1335	0	1	MUTTER	S	P	1	P	N
93	1	2919	0	2	SEEKRANK	A	N	2	P	N
94	3	1510	0	1	HEILUNG	S	P	1	R	B
95	3	1067	0	1	VERWEINT	A	N	1	R	B
96	1	1621	0	1	WERTVOLL	A	P	1	P	N
97	1	1248	1	1	MASSAKER	S	N	2	P	N
98	2	3762	0	1	GEMEIN	A	N	2	A	S
99	1	2204	0	1	SOMMER	S	P	1	P	N
100	2	3060	0	1	TOLERANT	A	P	1	A	S
101	2	1047	0	1	NEIDISCH	A	N	1	A	S
102	2	1228	0	1	LIEB	A	P	1	A	S
103	1	1429	0	2	SEKTE	S	N	1	P	N
104	3	1539	0	1	MASSAGE	S	P	1	R	B
105	1	3313	0	1	JUBEL	S	P	1	P	N
106	3	1221	0	2	TALENT	S	P	2	R	B
107	1	3720	0	1	VERTRAUT	A	P	2	P	N
108	2	1805	0	1	SILBERN	A	P	2	A	S
109	3	1327	0	2	BRUTAL	A	N	2	R	B
110	1	2256	0	2	SCHMERZ	S	N	1	P	N
111	2	1858	0	2	LEBEN	S	P	2	A	S
112	3	3267	0	2	BEGABUNG	S	P	2	R	B
113	1	3320	0	2	TRAUMA	S	N	2	P	N
114	2	1291	0	1	ZERLUMPT	A	N	1	A	S
115	3	1314	0	2	BRILLANT	A	P	2	R	B
116	1	1823	0	1	BEFREIUNG	S	P	2	P	N
117	2	1375	0	2	FURCHT	S	N	2	A	S
118	1	2082	0	2	GIERIG	A	N	2	P	N
119	3	1102	0	1	TRAURIG	A	N	1	R	B
120	1	3343	0	1	OPTIMIST	S	P	2	P	N
121	2	1092	0	1	ROBUST	A	P	1	A	S
122	3	1286	0	1	GESUND	A	P	1	R	B
123	2	1155	0	2	GESCHENK	S	P	2	A	S
124	2	1422	0	2	GEISEL	S	N	2	A	S
125	3	1610	0	2	DROHUNG	S	N	2	R	B
126	2	1755	0	1	SAUBER	A	P	1	A	S
127	1	2343	0	2	PANISCH	A	N	2	P	N
128	2	1392	0	1	REIZVOLL	A	P	2	A	S
129	1	2911	0	1	TOLERANZ	S	P	1	P	N
130	3	2002	0	2	UNRECHT	S	N	2	R	B
131	2	2215	0	2	FOLTER	S	N	2	A	S
132	3	1664	0	1	VATER	S	P	1	R	B
133	2	2384	0	1	BODENLOS	A	N	1	A	S
134	1	2166	0	2	KRAFTLOS	A	N	1	P	N
135	1	1181	0	2	UNGESUND	A	N	1	P	N
136	1	1119	0	1	AKTIV	A	P	1	P	N
137	2	2186	0	2	ERFOLG	S	P	1	A	S
138	2	1856	0	2	ABSTURZ	S	N	1	A	S
139	3	1391	0	1	BANKROTT	A	N	1	R	B
140	2	1081	0	1	STARK	A	P	2	A	S
141	3	1642	0	2	KREATIV	A	P	2	R	B
142	1	1378	0	1	VITAL	A	P	2	P	N
143	2	2085	0	2	ERFOLG	S	P	1	A	S
144	3	1216	0	1	SCHMERZ	S	N	1	R	B
145	1	1386	0	2	ATTENTAT	S	N	2	P	N
146	2	1935	0	1	FRAULICH	A	P	2	A	S
147	3	2794	0	1	LAUNISCH	A	N	1	R	B
148	1	1986	0	2	PEINLICH	A	N	1	P	N
149	2	1559	0	2	ABSTURZ	S	N	2	A	S
150	3	1520	0	1	PRACHT	S	P	1	R	B
151	1	1717	0	1	FROH	A	P	2	P	N
152	2	1433	0	2	MASSAGE	S	P	2	A	S
153	1	1402	0	1	ERHOLUNG	S	P	2	P	N
154	3	1216	0	1	SCHLECHT	A	N	1	R	B
155	1	1355	0	2	HALBTOT	A	N	2	P	N
156	2	3032	0	2	MORDFALL	S	N	2	A	S
157	3	2412	0	1	LIEBLOS	A	N	1	R	B
158	2	1958	0	2	ABENDROT	S	P	1	A	S
159	2	4221	0	2	PEINIGER	S	N	2	A	S
160	3	1617	0	2	EROTIK	S	P	2	R	B
161	2	1231	0	2	HUMOR	S	P	2	A	S
162	1	1650	0	2	LEICHNAM	S	N	1	P	N
163	2	2043	1	2	TRIST	A	N	2	A	S
164	1	2097	0	1	SAUBER	A	P	1	P	N
165	3	1444	0	2	BLUTIG	A	N	2	R	B
166	2	1647	0	2	BLUTTAT	S	N	1	A	S
167	3	1367	0	1	ENERGIE	S	P	1	R	B
168	2	1325	0	2	JUBEL	S	P	2	A	S
169	1	2254	0	1	TALENT	S	P	2	P	N
170	1	1887	0	1	TAKTVOLL	A	P	1	P	N
171	1	1342	0	2	VERRAT	S	N	1	P	N
172	2	1863	0	2	KLARHEIT	S	P	1	A	S
173	2	1226	0	2	NOTFALL	S	N	2	A	S
174	3	1301	0	1	TODFEIND	S	N	1	R	B
175	2	1810	0	2	REVOLVER	S	N	1	A	S
176	1	1707	0	2	FURCHT	S	N	1	P	N
177	3	1876	0	2	UNRECHT	S	N	2	R	B
178	2	1363	0	1	WARM	A	P	2	A	S
179	1	2336	0	2	GREUEL	S	N	1	P	N
180	2	2012	0	1	RASTLOS	A	N	2	A	S
181	1	2944	0	1	POSITIV	A	P	1	P	N
182	1	3126	0	1	VERTRAUEN	S	P	2	P	N
183	2	1578	0	1	OPTIMAL	A	P	1	A	S
184	3	1271	0	1	ILLEGAL	A	N	1	R	B
185	1	2125	0	2	PLANLOS	A	N	2	P	N
186	3	2861	0	1	SADISMUS	S	N	1	R	B
187	1	2002	0	2	TUMOR	S	N	2	P	N
188	1	1028	0	2	KOLLAPS	S	N	2	P	N
189	2	1367	0	2	VIRUS	S	N	1	A	S
190	2	1090	0	1	TRAGISCH	A	N	2	A	S
191	3	1331	0	2	ZERLUMPT	A	N	2	R	B
192	3	1323	0	1	ANMUTIG	A	P	1	R	B
193	2	1689	0	2	PSYCHOSE	S	N	1	A	S
194	3	2469	0	2	VERTRAUT	A	P	2	R	B
195	2	1699	0	1	LUKRATIV	A	P	2	A	S
196	3	2259	0	1	UNMENSCH	S	N	1	R	B
197	3	893	0	1	TRAUMA	S	N	1	R	B
198	2	2257	0	1	TOLERANT	A	P	1	A	S
199	3	1375	1	2	TOLERANZ	S	P	1	R	B
200	1	1425	0	2	LEPRA	S	N	1	P	N
201	3	1299	0	2	GIFTGAS	S	N	2	R	B
202	2	1637	0	1	NEIDISCH	A	N	2	A	S
203	3	1295	0	2	UNHEIL	S	N	2	R	B
204	3	1648	0	2	SKLAVE	S	N	2	R	B
205	2	2134	0	1	VERLETZT	A	N	1	A	S
206	2	1089	0	2	SCHLACHT	S	N	2	A	S
207	3	1549	0	2	BOSHAFT	A	N	2	R	B
208	1	2651	0	2	GEMETZEL	S	N	2	P	N
209	2	1306	0	1	LUSTLOS	A	N	1	A	S
210	1	2142	1	2	REIZVOLL	A	P	1	P	N
211	3	3065	0	2	PARTNER	S	P	2	R	B
212	3	1661	0	2	TREU	A	P	2	R	B
213	3	959	0	1	BLUME	S	P	1	R	B
214	2	1115	0	1	SONNIG	A	P	1	A	S
215	1	2042	0	2	BANKROTT	A	N	2	P	N
216	2	1143	0	1	PRIMA	A	P	2	A	S
217	1	2224	0	1	FRIEDEN	S	P	1	P	N
218	2	1922	0	1	LEBENDIG	A	P	1	A	S
219	2	1249	0	1	SCHLAU	A	P	2	A	S
220	3	2012	0	2	GUTARTIG	A	P	2	R	B
221	1	1677	0	1	ERFÜLLUNG	S	P	1	P	N
222	3	1520	0	1	HENKER	S	N	1	R	B
223	3	1248	0	2	NATUR	S	P	2	R	B
224	1	1744	0	1	HIMMEL	S	P	1	P	N
225	3	1490	0	1	FERIEN	S	P	1	R	B
226	1	2845	0	2	UNFALL	S	N	2	P	N
227	1	1268	0	2	INTRIGE	S	N	1	P	N
228	2	1513	0	2	PANIK	S	N	2	A	S
229	2	1398	0	2	HOFFNUNG	S	P	2	A	S
230	2	1369	0	2	DROHUNG	S	N	2	A	S
231	1	1326	0	2	UNGESUND	A	N	2	P	N
232	1	1348	0	2	IRRSINN	S	N	1	P	N
233	1	1229	0	1	GENIAL	A	P	2	P	N
234	3	1836	0	2	FREUDE	S	P	2	R	B
235	3	1435	0	1	BLÜTE	S	P	1	R	B
236	1	2246	0	2	GRANATE	S	N	2	P	N
237	1	1037	0	2	ELEND	A	N	1	P	N
238	2	1609	0	1	PANISCH	A	N	2	A	S
239	1	1363	0	1	HEITER	A	P	2	P	N
240	2	1461	0	2	MORDTAT	S	N	2	A	S
241	2	1162	0	2	TERROR	S	N	1	A	S
242	2	1399	0	1	VERWEINT	A	N	1	A	S
243	1	5652	0	2	STRAFE	S	N	2	P	N
244	3	1548	0	2	HUMORLOS	A	N	2	R	B
245	1	2010	0	1	FREIHEIT	S	P	2	P	N
246	2	1315	0	1	PFIFFIG	A	P	2	A	S
247	3	1229	0	2	VATER	S	P	2	R	B
248	1	2117	0	2	GEFAHR	S	N	2	P	N
249	3	1402	0	1	SABOTEUR	S	N	1	R	B
250	1	1309	0	2	GRAUSAM	A	N	1	P	N
251	1	1270	0	2	GEWALT	S	N	2	P	N
252	3	1608	0	2	ERZFEIND	S	N	2	R	B
253	2	1347	0	1	SPONTAN	A	P	2	A	S
254	1	1634	0	2	KRANK	A	N	2	P	N
255	2	1449	0	1	BUNT	A	P	1	A	S
256	1	1495	0	2	SATAN	S	N	1	P	N
257	2	3992	0	2	ERDBEERE	S	P	2	A	S
258	2	1466	0	1	HERZLOS	A	N	1	A	S
259	3	1433	0	1	SPRITZIG	A	P	1	R	B
260	3	994	0	1	GRUSELIG	A	N	1	R	B
261	3	899	0	1	WEISE	A	P	1	R	B
262	1	1606	0	2	PERVERS	A	N	2	P	N
263	1	1219	0	2	SEEKRANK	A	N	1	P	N
264	1	1217	0	1	WAHRHEIT	S	P	1	P	N
265	2	2075	0	2	SOMMER	S	P	2	A	S
266	2	1516	0	1	ENTSETZT	A	N	1	A	S
267	2	1199	0	1	PERFEKT	A	P	2	A	S
268	1	1246	0	2	ALPTRAUM	S	N	2	P	N
269	3	1586	0	1	ATEMNOT	S	N	1	R	B
270	1	2154	0	2	LEBLOS	A	N	1	P	N
271	1	1418	0	2	WEHRLOS	A	N	2	P	N
272	3	1341	0	1	WISSEN	S	P	1	R	B
273	2	1596	0	1	ANOMAL	A	N	2	A	S
274	1	2274	0	1	FRÜHJAHR	S	P	2	P	N
275	3	1936	0	2	KLUGHEIT	S	P	2	R	B
276	3	1450	0	2	GESCHENK	S	P	2	R	B
277	2	1075	0	1	MUTIG	A	P	1	A	S
278	1	2255	0	2	ANGRIFF	S	N	1	P	N
279	3	1654	0	1	SUPER	A	P	1	R	B
280	1	2248	0	1	FREUND	S	P	2	P	N
281	1	1649	0	2	INTRIGE	S	N	1	P	N
282	3	1135	0	2	VERLETZT	A	N	2	R	B
283	2	1341	0	2	SKLAVE	S	N	1	A	S
284	1	2191	0	2	ZWECKLOS	A	N	2	P	N
285	2	1203	0	1	TRIST	A	N	2	A	S
286	1	2328	0	2	ASOZIAL	A	N	1	P	N
287	1	1847	0	2	LAUNISCH	A	N	1	P	N
288	2	1523	0	1	REICH	A	P	1	A	S
289	3	4205	0	2	GENIAL	A	P	2	R	B
290	1	1977	0	2	REVOLVER	S	N	2	P	N
291	3	1473	0	2	UNTREUE	S	N	2	R	B
292	1	1908	0	1	TOPFIT	A	P	1	P	N
293	1	1564	0	2	LEICHNAM	S	N	2	P	N
294	2	2493	0	2	FURCHT	S	N	2	A	S
295	2	1314	0	2	JUBEL	S	P	1	A	S
296	3	1431	0	2	LOYAL	A	P	2	R	B
297	3	1338	0	1	FREUDE	S	P	1	R	B
298	2	1406	0	1	MUNTER	A	P	2	A	S
299	3	1610	0	2	UNHEIL	S	N	2	R	B
300	2	1161	0	1	GRUSELIG	A	N	2	A	S
301	3	1413	0	1	HUMOR	S	P	1	R	B
302	3	1242	0	2	SABOTEUR	S	N	2	R	B
303	2	2129	0	1	PERVERS	A	N	1	A	S
304	3	1459	0	2	MUSIK	S	P	2	R	B
305	1	2488	0	2	NOTFALL	S	N	2	P	N
306	3	3075	0	2	WEISE	A	P	2	R	B
307	2	1327	0	2	BLÜTE	S	P	2	A	S
308	3	1287	0	1	DROHUNG	S	N	1	R	B
309	3	842	0	1	STARK	A	P	1	R	B
310	2	1084	0	1	BRILLANT	A	P	1	A	S
311	2	949	0	1	GRATIS	A	P	1	A	S
312	3	2200	0	1	FREIZEIT	S	P	1	R	B
313	1	1916	0	2	HERZLOS	A	N	2	P	N
314	2	1338	0	1	PLANLOS	A	N	1	A	S
315	1	1953	0	1	GESCHENK	S	P	1	P	N
316	2	2059	0	2	AGGRESSION	S	N	2	A	S
317	3	1299	0	2	WAHRHEIT	S	P	2	R	B
318	1	2152	0	1	POSITIV	A	P	2	P	N
319	3	2668	0	2	URLAUB	S	P	2	R	B
320	1	1541	0	1	HUMAN	A	P	2	P	N
321	1	1080	0	2	GIERIG	A	N	2	P	N
322	3	1353	0	1	LEPRA	S	N	1	R	B
323	2	1295	0	2	GEMETZEL	S	N	2	A	S
324	1	2617	0	2	VERBOTEN	A	N	2	P	N
325	2	2321	0	1	TAKTVOLL	A	P	2	A	S
326	1	1246	0	2	INFERNO	S	N	1	P	N
327	2	1462	0	1	LIEBLOS	A	N	2	A	S
328	2	1209	0	1	UNFAIR	A	N	2	A	S
329	3	1443	0	1	STRAND	S	P	1	R	B
330	3	1113	0	1	GEFAHR	S	N	1	R	B
331	3	1072	0	1	IRRSINN	S	N	1	R	B
332	1	1485	0	1	FRIEDE	S	P	1	P	N
333	1	1575	0	2	KORRUPT	A	N	2	P	N
334	1	1862	0	1	SATT	A	P	1	P	N
335	2	1318	0	1	ZERLUMPT	A	N	1	A	S
336	2	950	0	1	PEINLICH	A	N	1	A	S
337	2	1027	0	2	PEINIGER	S	N	1	A	S
338	1	3273	0	1	HARMONIE	S	P	2	P	N
339	3	1247	0	1	SADISMUS	S	N	1	R	B
340	1	1603	0	2	LABIL	A	N	2	P	N
341	1	1372	0	1	MASSAGE	S	P	2	P	N
342	3	1250	0	2	FOLTER	S	N	2	R	B
343	2	1481	0	2	HEILUNG	S	P	1	A	S
344	1	1385	0	1	PERFEKT	A	P	2	P	N
345	3	2076	0	1	NETT	A	P	1	R	B
346	3	893	0	1	FROH	A	P	1	R	B
347	2	1115	0	1	FRAULICH	A	P	1	A	S
348	1	1417	0	2	BODENLOS	A	N	2	P	N
349	3	1294	0	1	FANTASIE	S	P	1	R	B
350	1	21	1	1	MORDFALL	S	N	1	P	N
351	3	2973	0	2	TOLL	A	P	2	R	B
352	1	1324	0	1	IDYLLE	S	P	1	P	N
353	2	1300	0	2	RETTER	S	P	1	A	S
354	3	1481	0	1	KLARHEIT	S	P	1	R	B
355	1	1978	0	2	ASCHFAHL	A	N	1	P	N
356	2	1473	0	1	TAPFER	A	P	2	A	S
357	3	1392	0	1	GRANATE	S	N	1	R	B
358	1	1394	0	2	BLUTIG	A	N	1	P	N
359	2	2834	0	1	HUMORLOS	A	N	2	A	S
360	3	1164	0	2	ERZFEIND	S	N	2	R	B
361	1	1104	0	1	LEBEN	S	P	1	P	N
362	2	1547	0	1	HEILFROH	A	P	1	A	S
363	1	2242	0	1	FORTUNA	S	P	2	P	N
364	3	1595	0	2	KRANK	A	N	2	R	B
365	1	3679	0	1	BEGABUNG	S	P	1	P	N
366	2	16	0	1	RASTLOS	A	N	2	A	S
367	3	3389	0	1	TREULOS	A	N	1	R	B
368	2	1589	0	1	GUTARTIG	A	P	1	A	S
369	2	1468	0	1	FREUDLOS	A	N	2	A	S
370	3	1388	0	2	MUTTER	S	P	2	R	B
371	2	1937	0	1	AKTIV	A	P	2	A	S
372	1	2248	0	1	OPTIMIST	S	P	2	P	N
373	2	1741	0	2	FREUND	S	P	1	A	S
374	1	1580	0	1	FERIEN	S	P	2	P	N
375	3	1336	0	1	ENTSETZT	A	N	1	R	B
376	2	2045	0	2	GEISEL	S	N	2	A	S
377	3	3865	0	2	EINSAM	A	N	2	R	B
378	2	2456	0	1	ILLEGAL	A	N	1	A	S
379	1	1998	0	2	ELEND	A	N	2	P	N
380	1	1398	0	2	UNMENSCH	S	N	1	P	N
381	1	1166	0	2	STRAFE	S	N	2	P	N
382	2	1684	0	2	BEFREIUNG	S	P	2	A	S
383	2	1246	0	1	HILFLOS	A	N	2	A	S
384	3	2227	0	2	ANOMAL	A	N	2	R	B
385	2	2144	0	2	WEISHEIT	S	P	1	A	S
386	3	1425	0	2	FRIEDEN	S	P	2	R	B
387	3	1988	0	2	TREU	A	P	2	R	B
388	3	1373	0	2	TRAURIG	A	N	2	R	B
389	2	1251	1	1	WISSEN	S	P	2	A	S
390	1	1669	0	2	BESTIE	S	N	1	P	N
391	2	1715	0	1	MILITANT	A	N	2	A	S
392	1	1697	0	2	ABSTURZ	S	N	2	P	N
393	2	1711	0	2	KIRSCHE	S	P	2	A	S
394	2	1505	0	2	MASSAKER	S	N	2	A	S
395	3	1484	0	2	STABIL	A	P	2	R	B
396	1	2153	0	1	SAUBER	A	P	1	P	N
397	3	1949	0	2	VERWEINT	A	N	2	R	B
398	3	1088	0	1	BLUME	S	P	1	R	B
399	1	1813	0	2	KRAFTLOS	A	N	1	P	N
400	3	1288	0	2	HENKER	S	N	2	R	B
401	1	1844	0	1	PFIFFIG	A	P	1	P	N
402	1	1239	0	1	PARADIES	S	P	2	P	N
403	2	1439	0	2	ENERGIE	S	P	1	A	S
404	2	1266	0	2	UNRECHT	S	N	1	A	S
405	2	1027	0	1	LUSTLOS	A	N	1	A	S
406	1	1866	0	2	GEWALT	S	N	2	P	N
407	1	1713	0	1	OPTIMAL	A	P	2	P	N
408	1	1977	0	1	ERFÜLLUNG	S	P	1	P	N
409	3	1707	0	1	TOLERANZ	S	P	1	R	B
410	3	2126	1	2	HALBTOT	A	N	1	R	B
411	1	3753	0	1	KREATIV	A	P	1	P	N
412	1	1148	0	2	GRAUSAM	A	N	1	P	N
413	2	1464	0	2	KOLLAPS	S	N	1	A	S
414	1	1478	0	1	SUPER	A	P	2	P	N
415	2	2006	0	2	INSEL	S	P	2	A	S
416	2	1078	0	1	PRIMA	A	P	1	A	S
417	2	5414	0	1	SINNLICH	A	P	2	A	S
418	1	1481	0	1	SCHLAU	A	P	1	P	N
419	3	1808	0	1	ANMUTIG	A	P	1	R	B
420	1	2439	0	1	KÜSTE	S	P	2	P	N
