response	response_time	trial_ISI	trial_shape
space	527	1000	red_square
None	0	2000	green_triangle
None	0	1000	green_circle
space	389	2000	red_square
None	0	2500	blue_triangle
None	0	2000	red_circle
None	0	2000	blue_square
None	0	1500	green_square
space	370	2500	red_square
None	0	1500	green_square
None	0	1500	green_square
None	0	1500	yellow_square
space	436	2000	red_square
None	0	1500	yellow_star
space	453	1000	red_square
None	0	2500	green_triangle
None	0	2000	red_circle
None	0	1000	yellow_circle
None	0	2500	green_triangle
space	374	1500	red_square
space	400	2000	red_square
None	0	1000	yellow_circle
space	431	2500	red_square
space	408	2500	red_square
space	414	2000	red_square
None	0	1000	red_triangle
space	461	1500	red_square
None	0	2500	blue_triangle
None	0	1500	blue_square
None	0	1500	red_triangle
space	466	1500	red_square
None	0	1500	blue_triangle
None	0	2500	blue_circle
space	467	2000	red_square
None	0	2500	red_star
None	0	1500	green_circle
None	0	2000	yellow_circle
space	404	2500	red_square
None	0	2500	yellow_circle
None	0	2500	red_triangle
None	0	2500	red_circle
None	0	1000	blue_square
None	0	1000	yellow_square
None	0	1000	red_star
space	448	2500	red_square
None	0	2000	blue_square
None	0	1500	yellow_triangle
None	0	1000	blue_square
space	418	1000	red_square
space	553	2500	red_square
None	0	2000	green_square
None	0	1000	blue_square
None	0	2000	blue_triangle
None	0	2000	yellow_star
None	0	1000	blue_star
None	0	1500	yellow_circle
None	0	1000	yellow_triangle
space	418	1500	red_square
None	0	1000	yellow_star
None	0	1500	blue_star
space	468	2500	red_square
None	0	2500	green_square
space	491	1000	red_square
space	474	1000	red_square
None	0	1000	blue_square
None	0	2500	yellow_square
None	0	2500	green_circle
None	0	1500	green_triangle
None	0	2500	green_triangle
None	0	1000	blue_circle
None	0	2000	yellow_triangle
None	0	2500	yellow_square
None	0	2500	green_circle
space	509	2500	red_square
space	511	2000	red_square
None	0	1000	blue_circle
space	542	1000	red_square
None	0	2000	green_star
None	0	2500	blue_square
None	0	2000	blue_triangle
None	0	1500	yellow_circle
None	0	1500	blue_circle
space	448	2000	red_square
None	0	2500	red_triangle
None	0	1000	green_square
space	477	1500	red_square
None	0	1500	blue_circle
None	0	1500	green_triangle
space	481	2000	red_square
space	472	2000	red_square
None	0	2000	blue_star
None	0	1500	blue_circle
None	0	1500	green_square
None	0	1000	green_circle
None	0	1500	red_star
None	0	2000	green_star
space	446	1500	red_square
None	0	1000	yellow_triangle
None	0	1500	red_circle
space	520	1000	red_square
space	543	1000	red_square
space	662	1500	red_square
None	0	2000	red_triangle
None	0	1500	green_square
None	0	1000	green_star
space	540	1500	red_square
None	0	1500	green_square
None	0	1500	yellow_square
None	0	2500	green_circle
None	0	2000	green_triangle
None	0	2000	green_star
None	0	2500	red_circle
space	479	1500	red_square
None	0	1000	blue_square
None	0	1000	blue_triangle
None	0	2500	yellow_square
None	0	2000	yellow_star
space	488	1500	red_square
space	414	1000	red_square
None	0	1000	yellow_star
None	0	2500	green_circle
None	0	2000	yellow_circle
None	0	2500	red_triangle
space	462	1000	red_square
None	0	2500	green_star
None	0	1500	red_star
None	0	2500	red_circle
None	0	1500	blue_triangle
space	443	2000	red_square
None	0	2500	yellow_square
None	0	2500	yellow_square
None	0	2000	yellow_star
None	0	2000	green_star
None	0	2000	yellow_circle
None	0	2000	blue_circle
None	0	2500	yellow_square
space	446	1000	red_square
None	0	2000	blue_circle
None	0	2500	yellow_star
None	0	1500	blue_star
None	0	2000	yellow_star
None	0	1000	red_circle
space	487	1500	red_square
None	0	1000	red_star
space	431	2500	red_square
space	521	2500	red_square
None	0	1000	green_star
None	0	2500	green_circle
None	0	1500	blue_square
space	380	1500	red_square
None	0	1500	green_square
None	0	1000	blue_circle
space	447	1500	red_square
None	0	2000	blue_square
space	424	1500	red_square
None	0	1500	red_star
None	0	1000	yellow_triangle
None	0	1000	red_circle
space	481	2000	red_square
space	528	2500	red_square
None	0	2500	red_circle
None	0	1500	green_star
space	481	1000	red_square
space	568	1000	red_square
None	0	1500	yellow_square
space	510	1000	red_square
space	557	1500	red_square
None	0	2500	blue_star
None	0	1000	red_star
space	515	2500	red_square
space	460	2000	red_square
space	548	2500	red_square
None	0	2000	blue_triangle
None	0	1500	yellow_triangle
None	0	2000	blue_triangle
None	0	2500	blue_square
None	0	1500	red_circle
space	434	1000	red_square
None	0	2000	green_star
None	0	1000	yellow_circle
None	0	1500	red_circle
None	0	1000	red_triangle
None	0	2000	blue_triangle
None	0	1500	green_circle
None	0	1500	red_star
space	450	1500	red_square
None	0	1000	blue_star
None	0	2500	green_circle
None	0	2000	yellow_star
None	0	2500	red_star
space	478	1000	red_square
None	0	2000	yellow_star
space	516	1000	red_square
None	0	1000	yellow_triangle
space	707	1500	red_square
None	0	2000	yellow_star
None	0	2500	blue_triangle
None	0	2500	yellow_square
None	0	2000	yellow_triangle
None	0	2000	yellow_square
None	0	1500	green_square
None	0	2000	yellow_triangle
space	463	1500	red_square
None	0	1000	yellow_square
space	560	2000	red_square
space	511	2000	red_square
None	0	2000	green_circle
None	0	1000	yellow_square
None	0	1000	blue_star
space	437	1500	red_square
None	0	2000	blue_square
None	0	1500	blue_triangle
space	447	2500	red_square
space	464	1500	red_square
space	534	1000	red_square
space	557	2500	red_square
None	0	1500	red_circle
None	0	2000	blue_star
space	540	1000	red_square
None	0	2500	red_circle
None	0	2000	blue_circle
None	0	1000	yellow_square
None	0	1000	green_star
None	0	1500	green_triangle
space	416	2000	red_square
None	0	1500	red_triangle
None	0	1000	green_triangle
space	480	1000	red_square
None	0	2500	red_triangle
space	506	2500	red_square
space	479	1000	red_square
None	0	2500	yellow_square
None	0	2000	blue_star
None	0	1500	green_square
None	0	2000	red_triangle
None	0	2000	red_triangle
space	552	1500	red_square
None	0	2000	red_star
None	0	1500	blue_square
None	0	2500	red_triangle
None	0	1000	red_star
None	0	2500	blue_square
None	0	2500	red_star
None	0	1500	green_star
None	0	1500	yellow_square
space	426	1500	red_square
space	475	2500	red_square
None	0	1500	blue_star
None	0	2500	blue_circle
None	0	2500	red_star
None	0	2000	blue_square
None	0	2000	red_circle
space	496	1000	red_square
None	0	2000	blue_square
None	0	1500	blue_star
None	0	2000	yellow_circle
None	0	1500	blue_triangle
None	0	1500	blue_star
None	0	1000	green_square
space	514	2000	red_square
None	0	2000	red_star
None	0	2500	red_star
None	0	2500	green_triangle
None	0	2000	yellow_triangle
None	0	2500	yellow_triangle
None	0	1000	red_star
space	469	2500	red_square
None	0	2000	red_circle
space	405	1000	red_square
space	540	2500	red_square
space	526	2500	red_square
None	0	1000	red_triangle
None	0	2500	red_star
None	0	1000	green_circle
None	0	2500	yellow_star
None	0	1000	green_square
None	0	2500	green_triangle
space	454	2000	red_square
space	470	1000	red_square
None	0	1500	green_square
None	0	1000	red_triangle
space	494	1000	red_square
space	509	2000	red_square
None	0	2500	red_triangle
space	494	2000	red_square
space	525	2500	red_square
None	0	2500	yellow_circle
space	577	1000	red_square
None	0	1500	red_triangle
None	0	2500	blue_circle
None	0	1000	blue_star
None	0	1000	red_circle
None	0	2500	yellow_square
space	447	2500	red_square
None	0	1500	green_circle
space	482	1500	red_square
None	0	1000	red_circle
None	0	2000	green_square
None	0	2500	green_star
None	0	2000	green_square
None	0	1000	red_circle
None	0	2500	green_triangle
space	468	1500	red_square
None	0	2000	yellow_square
None	0	2000	yellow_triangle
space	468	1500	red_square
space	434	1000	red_square
None	0	2000	green_triangle
None	0	2000	red_circle
None	0	2000	red_triangle
space	495	2000	red_square
None	0	2000	red_triangle
None	0	2500	red_star
None	0	2500	green_square
None	0	1000	yellow_circle
space	514	1500	red_square
None	0	1500	blue_square
None	0	1000	blue_square
None	0	1000	red_star
space	515	2000	red_square
