trial	condition	rt	acc	resp	word	val	gra	col	l_targ	r_targ
1	3	3562	0	2	ERDBEERE	S	P	1	B	R
2	3	1303	0	2	EHRLICH	A	P	1	B	R
3	3	3868	0	1	GREUEL	S	N	2	B	R
4	2	3636	0	1	VIRUS	S	N	1	S	A
5	1	4980	0	1	SINNLICH	A	P	2	P	N
6	2	5100	0	2	LAUNISCH	A	N	1	S	A
7	1	1665	0	1	HARMONIE	S	P	1	P	N
8	2	4934	0	2	WEHRLOS	A	N	1	S	A
9	2	2817	0	2	TOLERANT	A	P	1	S	A
10	3	3971	0	2	GALGEN	S	N	1	B	R
11	1	3650	0	1	FRIEDEN	S	P	1	P	N
12	3	5736	0	2	FORTUNA	S	P	1	B	R
13	3	3163	0	1	BESTIE	S	N	2	B	R
14	1	3999	0	1	PRACHT	S	P	1	P	N
15	3	3398	0	1	STRAND	S	P	2	B	R
16	1	2453	0	1	LEBEN	S	P	1	P	N
17	1	3298	0	2	VERBOTEN	A	N	2	P	N
18	2	3319	0	1	INTRIGE	S	N	1	S	A
19	2	3641	0	2	RASTLOS	A	N	1	S	A
20	2	3005	0	1	PEINIGER	S	N	2	S	A
21	1	3908	0	2	DEKADENT	A	N	2	P	N
22	1	3068	0	1	TOLL	A	P	2	P	N
23	1	3105	0	1	WEIBLICH	A	P	1	P	N
24	3	4264	0	2	BODENLOS	A	N	1	B	R
25	3	2940	0	2	TUMOR	S	N	1	B	R
26	1	4324	0	1	PARTNER	S	P	1	P	N
27	1	2196	0	1	KLARHEIT	S	P	2	P	N
28	2	5147	0	1	ERFOLG	S	P	2	S	A
29	1	4178	0	1	ROBUST	A	P	2	P	N
30	2	5899	0	2	ZIELLOS	A	N	2	S	A
31	2	1600	0	2	LIEBLOS	A	N	2	S	A
32	2	2042	0	1	SCHLACHT	S	N	2	S	A
33	1	2655	0	2	UNMENSCH	S	N	2	P	N
34	3	3257	0	1	TOXISCH	A	N	2	B	R
35	1	4070	0	2	ERZFEIND	S	N	1	P	N
36	1	1895	0	1	SOMMER	S	P	1	P	N
37	3	2932	0	2	EROTIK	S	P	1	B	R
38	2	4746	0	2	LUSTLOS	A	N	2	S	A
39	1	2397	0	1	PARTY	S	P	2	P	N
40	2	4371	0	2	WEISE	A	P	2	S	A
41	1	4689	0	2	NOTFALL	S	N	1	P	N
42	1	4580	0	2	SADISMUS	S	N	2	P	N
43	2	3608	0	2	FRAULICH	A	P	1	S	A
44	3	5310	0	2	BLUTTAT	S	N	1	B	R
45	1	4550	0	2	GRUSELIG	A	N	1	P	N
46	3	4192	0	2	WARM	A	P	1	B	R
47	1	6342	0	1	KÜSTE	S	P	2	P	N
48	1	3821	0	2	HALBTOT	A	N	1	P	N
49	2	4775	0	2	GUTARTIG	A	P	2	S	A
50	2	2064	0	1	RETTER	S	P	2	S	A
51	3	2116	0	2	HIMMEL	S	P	1	B	R
52	3	3724	0	2	FREUDE	S	P	1	B	R
53	2	5509	0	1	VERRAT	S	N	2	S	A
54	3	2349	0	2	VERTRAUEN	S	P	1	B	R
55	2	2751	0	2	TRAGISCH	A	N	2	S	A
56	3	2604	0	2	UNTREUE	S	N	1	B	R
57	3	3650	0	2	ASOZIAL	A	N	1	B	R
58	2	2439	0	1	HEILUNG	S	P	2	S	A
59	3	3230	0	1	MILITANT	A	N	2	B	R
60	1	4319	0	1	POSITIV	A	P	2	P	N
61	3	4074	1	1	TRAURIG	A	N	1	B	R
62	2	3149	0	1	GIFTGAS	S	N	2	S	A
63	3	3875	0	2	FERIEN	S	P	1	B	R
64	3	1861	0	2	WISSEN	S	P	1	B	R
65	2	3260	0	2	ZART	A	P	1	S	A
66	2	1753	0	2	HEITER	A	P	1	S	A
67	3	3177	0	2	ERHOLUNG	S	P	1	B	R
68	1	3016	0	1	STARK	A	P	1	P	N
69	2	2868	0	1	OHRFEIGE	S	N	1	S	A
70	1	2671	0	2	UNGESUND	A	N	1	P	N
71	2	3228	0	1	MUSIK	S	P	2	S	A
72	3	5384	0	2	MACHTLOS	A	N	1	B	R
73	1	5091	0	2	MONSTRUM	S	N	2	P	N
74	3	2368	0	2	KIRSCHE	S	P	1	B	R
75	1	4222	0	2	BLUTIG	A	N	1	P	N
76	1	1842	0	2	PEINLICH	A	N	2	P	N
77	3	2624	0	2	FROH	A	P	1	B	R
78	2	3767	0	2	HUMAN	A	P	2	S	A
79	1	4724	0	1	SONNABEND	S	P	1	P	N
80	2	3582	0	1	GESCHENK	S	P	2	S	A
81	1	2731	0	2	HILFLOS	A	N	1	P	N
82	2	2581	0	2	SAUBER	A	P	1	S	A
83	2	2457	0	1	ERFÜLLUNG	S	P	1	S	A
84	3	3797	0	2	HUMORLOS	A	N	1	B	R
85	3	5053	0	1	VERWEINT	A	N	2	B	R
86	3	3223	0	2	HUMOR	S	P	1	B	R
87	1	2156	0	1	WAHRHEIT	S	P	2	P	N
88	1	2773	0	2	VERLOGEN	A	N	1	P	N
89	1	2938	0	2	SABOTEUR	S	N	2	P	N
90	2	2475	0	2	PRIMA	A	P	1	S	A
91	2	2201	0	2	UNFAIR	A	N	1	S	A
92	2	4558	0	1	GEMETZEL	S	N	2	S	A
93	1	2716	0	2	HERZLOS	A	N	1	P	N
94	3	4102	0	1	SCHLECHT	A	N	2	B	R
95	1	2925	0	1	BELIEBT	A	P	1	P	N
96	1	3127	0	1	VATER	S	P	1	P	N
97	3	3473	0	2	FREUDLOS	A	N	1	B	R
98	2	2437	0	2	GIERIG	A	N	2	S	A
99	1	2147	0	2	KRANK	A	N	1	P	N
100	3	3291	0	1	GRATIS	A	P	2	B	R
101	3	2334	0	2	LIEB	A	P	1	B	R
102	2	2502	0	1	SATAN	S	N	1	S	A
103	1	5000	0	1	BEQUEM	A	P	1	P	N
104	3	3684	0	2	GEFÜHL	S	P	1	B	R
105	1	4045	0	2	BRUTAL	A	N	2	P	N
106	3	2540	0	1	IDYLLE	S	P	2	B	R
107	1	3290	0	1	STABIL	A	P	1	P	N
108	2	2797	0	2	EINSAM	A	N	1	S	A
109	3	2850	0	2	ÜBERFALL	S	N	1	B	R
110	1	4791	0	2	ATTENTAT	S	N	2	P	N
111	2	3364	0	1	BEGABUNG	S	P	1	S	A
112	3	3635	0	1	REIZVOLL	A	P	2	B	R
113	1	3425	0	1	SPONTAN	A	P	1	P	N
114	2	4076	0	1	PANIK	S	N	2	S	A
115	3	4280	0	1	TALENT	S	P	2	B	R
116	1	2385	0	2	PLANLOS	A	N	2	P	N
117	2	2844	0	1	MASSAGE	S	P	2	S	A
118	1	2438	0	2	KOLLAPS	S	N	1	P	N
119	3	2834	0	1	BOSHAFT	A	N	2	B	R
120	1	2006	0	2	MASSAKER	S	N	1	P	N
121	2	2446	1	1	PLEITE	A	N	2	S	A
122	3	2995	0	1	PFIFFIG	A	P	2	B	R
123	2	2908	0	1	TOLERANZ	S	P	2	S	A
124	2	2283	0	2	SATT	A	P	2	S	A
125	3	5142	0	1	FRÜHJAHR	S	P	2	B	R
126	2	2224	0	1	HENKER	S	N	2	S	A
127	1	3779	0	2	ILLEGAL	A	N	2	P	N
128	2	4251	0	2	SONNIG	A	P	1	S	A
129	1	2237	0	2	TRIST	A	N	2	P	N
130	3	2802	0	2	NETT	A	P	1	B	R
131	2	2418	0	2	TREULOS	A	N	2	S	A
132	3	2413	0	2	REICH	A	P	1	B	R
133	2	2178	0	1	MORDTAT	S	N	1	S	A
134	1	2900	0	1	INSEL	S	P	1	P	N
135	1	1997	0	1	ENERGIE	S	P	2	P	N
136	1	2597	0	1	WERTVOLL	A	P	2	P	N
137	2	2483	0	2	KREATIV	A	P	2	S	A
138	2	5123	0	1	DROHUNG	S	N	2	S	A
139	3	2948	0	1	PERVERS	A	N	2	B	R
140	2	4261	0	1	BEFREIUNG	S	P	2	S	A
141	3	2652	0	2	SADISMUS	S	N	1	B	R
142	3	2000	0	1	ZART	A	P	2	B	R
143	3	2662	0	2	EROTIK	S	P	1	B	R
144	2	2795	0	1	NOTFALL	S	N	1	S	A
145	1	2201	0	2	BANKROTT	A	N	2	P	N
146	2	2593	0	2	SONNIG	A	P	1	S	A
147	1	2992	0	1	WERTVOLL	A	P	1	P	N
148	2	3096	0	1	STREIT	S	N	1	S	A
149	2	2104	0	1	TALENT	S	P	1	S	A
150	3	2763	0	1	HUMOR	S	P	2	B	R
151	1	2660	0	1	FREIZEIT	S	P	2	P	N
152	3	2726	0	1	STABIL	A	P	2	B	R
153	3	1824	0	2	INSEL	S	P	1	B	R
154	1	2111	0	2	STRAFTAT	S	N	1	P	N
155	3	3005	0	1	STARK	A	P	2	B	R
156	1	2518	0	2	ZERLUMPT	A	N	1	P	N
157	1	6519	0	2	REVOLVER	S	N	2	P	N
158	2	3815	0	2	UNBEQUEM	A	N	2	S	A
159	2	4222	0	2	SUPER	A	P	1	S	A
160	2	2537	0	2	ILLEGAL	A	N	2	S	A
161	1	2263	0	1	NETT	A	P	2	P	N
162	1	1702	0	2	VERLETZT	A	N	2	P	N
163	1	1719	0	1	FRAULICH	A	P	2	P	N
164	3	2938	0	2	ANMUTIG	A	P	1	B	R
165	3	2256	0	1	VERLOGEN	A	N	2	B	R
166	1	2107	0	1	RETTER	S	P	1	P	N
167	1	1855	0	2	UNGESUND	A	N	1	P	N
168	2	4238	0	1	FURCHT	S	N	1	S	A
169	1	2536	0	2	BLUTIG	A	N	2	P	N
170	2	4688	0	2	TRIST	A	N	1	S	A
171	2	2877	0	2	EINSAM	A	N	2	S	A
172	2	1848	0	1	BLUME	S	P	1	S	A
173	1	2426	0	1	TAKTVOLL	A	P	1	P	N
174	3	2624	0	1	GEFAHR	S	N	2	B	R
175	1	2286	0	2	TROSTLOS	A	N	1	P	N
176	3	4400	0	2	TYRANN	S	N	1	B	R
177	1	3446	0	1	KLARHEIT	S	P	1	P	N
178	2	4826	0	2	KORRUPT	A	N	1	S	A
179	3	3096	0	2	MORDTAT	S	N	1	B	R
180	1	2866	0	2	VERRAT	S	N	1	P	N
181	2	2348	0	1	VIRUS	S	N	1	S	A
182	3	2571	0	1	WAHRHEIT	S	P	2	B	R
183	1	2049	0	1	WEIBLICH	A	P	2	P	N
184	2	4840	0	1	UNRECHT	S	N	2	S	A
185	3	3211	0	1	HUMAN	A	P	2	B	R
186	1	2200	0	1	STILVOLL	A	P	2	P	N
187	2	2720	0	2	TOLL	A	P	2	S	A
188	1	2154	0	2	UNMENSCH	S	N	1	P	N
189	3	3416	0	2	MONSTRUM	S	N	1	B	R
190	1	2559	0	2	LABIL	A	N	1	P	N
191	2	2616	0	2	MACHTLOS	A	N	2	S	A
192	3	3283	0	2	BLUTTAT	S	N	1	B	R
193	2	3141	0	2	SPRITZIG	A	P	2	S	A
194	2	2134	0	1	KOLLAPS	S	N	1	S	A
195	3	1960	0	2	LEBEN	S	P	1	B	R
196	2	2832	0	2	DEKADENT	A	N	2	S	A
197	1	2524	0	1	ROBUST	A	P	1	P	N
198	2	4767	0	2	TRAURIG	A	N	2	S	A
199	1	2228	0	1	GUTARTIG	A	P	2	P	N
200	3	3169	0	1	OPTIMIST	S	P	2	B	R
201	2	2672	0	2	HILFLOS	A	N	1	S	A
202	3	4062	0	2	GRAUSAM	A	N	1	B	R
203	2	4489	0	1	SEKTE	S	N	2	S	A
204	1	2257	0	2	TERROR	S	N	2	P	N
205	1	3950	0	1	SILBERN	A	P	1	P	N
206	1	2583	0	2	LEPRA	S	N	2	P	N
207	2	4795	0	2	SCHLECHT	A	N	1	S	A
208	2	2074	0	1	DROHUNG	S	N	2	S	A
209	3	2615	0	2	FERIEN	S	P	1	B	R
210	2	2356	0	2	ASOZIAL	A	N	2	S	A
211	1	1957	0	1	SAUBER	A	P	2	P	N
212	3	2235	0	2	FROH	A	P	1	B	R
213	2	2570	0	2	ENTSETZT	A	N	1	S	A
214	1	3216	0	1	BRILLANT	A	P	1	P	N
215	2	2477	0	2	GRANDIOS	A	P	2	S	A
216	1	2399	0	1	WARM	A	P	2	P	N
217	1	2110	0	2	HENKER	S	N	2	P	N
218	2	5567	0	2	REICH	A	P	1	S	A
219	3	2880	0	1	TUMOR	S	N	2	B	R
220	1	3651	0	2	AGGRESSION	S	N	1	P	N
221	3	2471	0	2	GEWALT	S	N	1	B	R
222	1	2432	0	1	SATT	A	P	1	P	N
223	1	3454	0	2	PEINIGER	S	N	2	P	N
224	2	3544	0	1	ATEMNOT	S	N	2	S	A
225	2	3000	0	2	HEILFROH	A	P	2	S	A
226	3	3232	0	2	FREUDLOS	A	N	1	B	R
227	3	2965	0	2	GEMETZEL	S	N	1	B	R
228	2	2403	0	1	MUSIK	S	P	1	S	A
229	3	2856	0	1	SATAN	S	N	2	B	R
230	2	3343	0	2	VERTRAUT	A	P	1	S	A
231	3	1855	0	2	MUTIG	A	P	1	B	R
232	3	2033	0	1	SEEKRANK	A	N	2	B	R
233	2	2656	0	2	PERFEKT	A	P	1	S	A
234	3	2058	0	1	SCHMERZ	S	N	2	B	R
235	1	2303	0	2	TODFEIND	S	N	1	P	N
236	3	5497	0	2	BODENLOS	A	N	1	B	R
237	2	2233	0	1	PSYCHOSE	S	N	1	S	A
238	3	2552	0	2	PFIFFIG	A	P	1	B	R
239	3	2258	0	1	FREIHEIT	S	P	2	B	R
240	2	2100	0	2	ZIELLOS	A	N	1	S	A
241	2	2056	0	1	PARADIES	S	P	1	S	A
242	3	2188	0	1	FOLTER	S	N	2	B	R
243	1	2577	0	2	STRAFBAR	A	N	2	P	N
244	2	3473	0	2	WEISE	A	P	2	S	A
245	1	2492	0	1	MUTTER	S	P	1	P	N
246	2	3737	0	2	BUNT	A	P	2	S	A
247	3	2063	0	2	HERZLOS	A	N	1	B	R
248	1	2557	0	1	SINNVOLL	A	P	2	P	N
249	3	3317	0	1	LAUNISCH	A	N	2	B	R
250	1	4197	0	1	GEFÜHL	S	P	2	P	N
251	1	2233	0	1	GRATIS	A	P	1	P	N
252	3	3279	0	1	MORDFALL	S	N	2	B	R
253	2	2763	0	1	LEICHNAM	S	N	1	S	A
254	1	2514	0	1	FANTASIE	S	P	1	P	N
255	2	4507	0	2	PERVERS	A	N	2	S	A
256	1	3949	0	1	FREUDE	S	P	2	P	N
257	2	2852	0	2	PANISCH	A	N	1	S	A
258	2	2328	0	1	GEISEL	S	N	1	S	A
259	3	2040	0	1	ÜBERFALL	S	N	2	B	R
260	3	3278	0	2	PRACHT	S	P	1	B	R
261	3	4224	0	2	TAPFER	A	P	1	B	R
262	1	2203	0	1	IDYLLE	S	P	2	P	N
263	1	2763	0	2	BOSHAFT	A	N	1	P	N
264	1	2058	0	2	ERZFEIND	S	N	1	P	N
265	2	3506	0	1	GALGEN	S	N	2	S	A
266	2	2538	0	1	UNTREUE	S	N	2	S	A
267	2	2073	0	2	KREATIV	A	P	2	S	A
268	1	2399	0	2	STRAFE	S	N	2	P	N
269	3	2059	0	1	MASSAGE	S	P	2	B	R
270	1	1633	0	1	FRIEDE	S	P	2	P	N
271	1	2247	0	1	VATER	S	P	2	P	N
272	3	3265	0	2	UNFALL	S	N	1	B	R
273	2	3230	0	1	SABOTEUR	S	N	2	S	A
274	1	2537	0	2	INTRIGE	S	N	1	P	N
275	3	3201	0	2	TREU	A	P	1	B	R
276	3	3713	0	2	FREUDIG	A	P	1	B	R
277	2	2971	0	1	HARMONIE	S	P	2	S	A
278	1	1775	0	1	TOPFIT	A	P	1	P	N
279	3	3233	0	2	BEFREIUNG	S	P	1	B	R
280	1	2478	0	1	LOYAL	A	P	1	P	N
281	2	3526	0	1	PEINIGER	S	N	2	S	A
282	3	2495	0	1	ENTSETZT	A	N	2	B	R
283	1	2443	0	1	ABENDROT	S	P	1	P	N
284	3	2184	0	1	SCHLACHT	S	N	2	B	R
285	1	3334	0	2	RASTLOS	A	N	2	P	N
286	1	2862	0	2	UNBEQUEM	A	N	2	P	N
287	3	3217	0	2	HEILFROH	A	P	1	B	R
288	2	2576	0	1	ATTENTAT	S	N	1	S	A
289	1	1847	0	2	UNMENSCH	S	N	2	P	N
290	2	2612	0	2	KRAFTLOS	A	N	1	S	A
291	1	3467	0	1	URLAUB	S	P	1	P	N
292	2	2236	0	2	REICH	A	P	1	S	A
293	2	2551	0	2	ZERLUMPT	A	N	1	S	A
294	3	2561	0	1	KLUGHEIT	S	P	2	B	R
295	3	2857	0	1	ANOMAL	A	N	2	B	R
296	3	2509	0	2	STRAFE	S	N	1	B	R
297	1	2569	0	2	ALPTRAUM	S	N	2	P	N
298	1	2055	0	1	HEITER	A	P	1	P	N
299	1	2436	0	2	ZWECKLOS	A	N	1	P	N
300	2	2919	0	1	KIRSCHE	S	P	2	S	A
301	2	2234	0	1	FORTUNA	S	P	2	S	A
302	2	1382	0	1	GESCHENK	S	P	1	S	A
303	1	1805	1	2	KREATIV	A	P	1	P	N
304	3	2746	0	2	SOMMER	S	P	1	B	R
305	1	3045	0	1	ERDBEERE	S	P	1	P	N
306	1	2185	0	1	ERFÜLLUNG	S	P	1	P	N
307	3	3613	0	1	VATER	S	P	2	B	R
308	2	2487	0	1	MORDFALL	S	N	1	S	A
309	1	2263	0	2	GEMEIN	A	N	1	P	N
310	3	2412	0	2	REIZVOLL	A	P	1	B	R
311	3	1753	0	2	FOLTER	S	N	1	B	R
312	2	4809	0	2	LEBENDIG	A	P	2	S	A
313	1	2487	0	1	HUMOR	S	P	2	P	N
314	3	2091	0	1	FREUDIG	A	P	2	B	R
315	1	3045	0	2	PANISCH	A	N	2	P	N
316	3	2259	0	2	PEINLICH	A	N	1	B	R
317	1	2839	0	1	GEWINN	S	P	1	P	N
318	2	2484	0	2	GIERIG	A	N	2	S	A
319	3	2436	0	2	PRACHT	S	P	1	B	R
320	1	3922	0	2	SEKTE	S	N	2	P	N
321	2	3882	0	1	TRENNUNG	S	N	1	S	A
322	3	2179	0	1	SABOTEUR	S	N	2	B	R
323	1	2108	0	1	OPTIMIST	S	P	1	P	N
324	2	2030	0	1	BLUME	S	P	1	S	A
325	3	3365	0	1	GEFAHR	S	N	2	B	R
326	1	2875	0	2	NOTFALL	S	N	2	P	N
327	2	3069	0	1	MUSIK	S	P	2	S	A
328	1	1730	0	2	TERROR	S	N	2	P	N
329	3	2362	0	1	GRUSELIG	A	N	2	B	R
330	1	2049	0	2	LAUNISCH	A	N	2	P	N
331	2	3927	0	2	SUPER	A	P	2	S	A
332	3	4679	0	1	ANGRIFF	S	N	2	B	R
333	2	2779	0	2	STILVOLL	A	P	2	S	A
334	2	1448	0	2	TRAGISCH	A	N	2	S	A
335	3	2726	0	1	MUTIG	A	P	2	B	R
336	2	3800	0	1	KLARHEIT	S	P	1	S	A
337	1	2830	0	2	HUMORLOS	A	N	2	P	N
338	2	3218	1	1	ELEND	A	N	2	S	A
339	1	1991	0	2	LUSTLOS	A	N	1	P	N
340	3	2717	0	1	BRUTAL	A	N	2	B	R
341	2	2248	0	2	STARK	A	P	1	S	A
342	3	4093	0	1	PERVERS	A	N	2	B	R
343	2	4788	0	1	GEMETZEL	S	N	1	S	A
344	1	2572	0	2	HENKER	S	N	1	P	N
345	1	2913	0	1	MASSAGE	S	P	1	P	N
346	1	2183	0	1	BRILLANT	A	P	2	P	N
347	2	2236	0	2	VERLETZT	A	N	1	S	A
348	2	1946	0	2	SPRITZIG	A	P	1	S	A
349	3	2409	0	1	IRRSINN	S	N	2	B	R
350	2	2280	0	2	KORRUPT	A	N	2	S	A
351	1	3667	0	1	SPONTAN	A	P	2	P	N
352	3	4044	0	1	GRAUSAM	A	N	2	B	R
353	2	2145	0	2	HERZLOS	A	N	2	S	A
354	1	2084	0	1	GRANDIOS	A	P	1	P	N
355	2	2420	0	1	FREIZEIT	S	P	1	S	A
356	1	2548	0	1	PARTNER	S	P	1	P	N
357	1	4067	0	1	FRÜHJAHR	S	P	2	P	N
358	2	3919	0	2	WEISE	A	P	1	S	A
359	3	2663	0	2	GENIAL	A	P	1	B	R
360	1	3738	0	2	SATAN	S	N	1	P	N
361	3	2963	0	1	WEIBLICH	A	P	2	B	R
362	1	4132	0	2	ÜBERFALL	S	N	2	P	N
363	1	2179	0	1	ROBUST	A	P	1	P	N
364	2	2635	0	1	UNFALL	S	N	2	S	A
365	2	1726	0	2	LEBLOS	A	N	2	S	A
366	3	1633	0	2	GEFÜHL	S	P	1	B	R
367	3	2470	0	1	WARM	A	P	2	B	R
368	2	3259	0	2	OPTIMAL	A	P	1	S	A
369	3	2100	0	1	MONSTRUM	S	N	2	B	R
370	2	2553	0	2	NEIDISCH	A	N	1	S	A
371	3	2399	0	1	TRAUMA	S	N	2	B	R
372	3	1888	0	2	SADISMUS	S	N	1	B	R
373	2	2233	0	2	VERBOTEN	A	N	2	S	A
374	3	2220	0	2	HILFLOS	A	N	1	B	R
375	1	2381	0	1	ZUHAUSE	S	P	2	P	N
376	3	2378	0	1	TREULOS	A	N	2	B	R
377	2	2529	0	2	SINNLICH	A	P	1	S	A
378	3	2323	0	1	FREIHEIT	S	P	2	B	R
379	3	1719	0	1	UNRECHT	S	N	2	B	R
380	2	2445	0	2	BELIEBT	A	P	2	S	A
381	2	3069	0	2	BODENLOS	A	N	1	S	A
382	3	2757	0	2	GREUEL	S	N	1	B	R
383	1	1982	0	1	ENERGIE	S	P	2	P	N
384	2	3063	0	2	MUNTER	A	P	2	S	A
385	1	1987	0	2	HALBTOT	A	N	1	P	N
386	3	2482	0	2	SKLAVE	S	N	1	B	R
387	3	1844	0	2	INTRIGE	S	N	1	B	R
388	3	2439	0	2	GIFTGAS	S	N	1	B	R
389	2	2871	0	2	GRATIS	A	P	2	S	A
390	1	1920	0	1	IDYLLE	S	P	1	P	N
391	2	3411	0	2	BEQUEM	A	P	2	S	A
392	1	1856	0	2	UNGESUND	A	N	1	P	N
393	2	2821	0	1	HEILUNG	S	P	1	S	A
394	2	2131	0	2	MILITANT	A	N	1	S	A
395	3	2882	0	1	VERLOGEN	A	N	2	B	R
396	1	2543	0	1	FRIEDEN	S	P	2	P	N
397	3	3047	0	1	ERHOLUNG	S	P	2	B	R
398	3	2475	0	1	FREUDE	S	P	2	B	R
399	1	1885	0	2	LABIL	A	N	1	P	N
400	3	3312	0	1	BOSHAFT	A	N	2	B	R
401	1	2057	0	1	PFIFFIG	A	P	1	P	N
402	1	3045	0	1	SATT	A	P	2	P	N
403	2	3946	0	2	EHRLICH	A	P	2	S	A
404	2	2396	0	1	ERFOLG	S	P	2	S	A
405	2	2186	0	2	UNFAIR	A	N	1	S	A
406	1	2290	0	1	VITAL	A	P	1	P	N
407	1	3188	0	2	EINSAM	A	N	1	P	N
408	1	2452	0	1	INSEL	S	P	2	P	N
409	3	3636	0	2	LIEB	A	P	1	B	R
410	3	1625	0	2	ZUKUNFT	S	P	1	B	R
411	1	1792	0	1	SCHLAU	A	P	2	P	N
412	1	3183	0	1	ZART	A	P	2	P	N
413	2	2173	0	2	TAKTVOLL	A	P	2	S	A
414	1	2184	0	1	VERTRAUT	A	P	1	P	N
415	2	3662	0	2	ILLEGAL	A	N	1	S	A
416	2	3631	0	2	PRIMA	A	P	1	S	A
417	2	1971	0	2	LIEBLOS	A	N	1	S	A
418	1	1964	0	1	TOLERANZ	S	P	1	P	N
419	3	5941	0	1	PLANLOS	A	N	2	B	R
420	1	3004	0	1	HIMMEL	S	P	1	P	N
