response	response_time	trial_ISI	trial_shape
space	412	2000	red_square
None	0	2500	red_circle
None	0	1500	red_star
None	0	2000	blue_triangle
None	0	2000	yellow_triangle
space	397	2000	red_square
None	0	1000	yellow_star
None	0	2500	blue_triangle
space	370	2000	red_square
None	0	1000	green_triangle
None	0	1000	yellow_circle
space	368	2000	red_square
None	0	2500	yellow_circle
None	0	1000	blue_square
None	0	2500	green_square
None	0	2500	red_triangle
None	0	2500	yellow_circle
None	0	2000	red_circle
space	365	1500	red_square
None	0	2000	green_circle
None	0	2500	blue_square
None	0	1000	green_star
space	431	1500	red_square
None	0	1000	red_triangle
None	0	1500	green_circle
space	369	2000	red_square
space	480	2500	red_square
None	0	1000	blue_triangle
None	0	2000	yellow_square
None	0	2000	green_square
space	368	2500	red_square
None	0	1000	yellow_star
None	0	2500	green_triangle
space	370	2500	red_square
None	0	2000	green_triangle
None	0	1000	yellow_circle
space	395	2000	red_square
None	0	1500	yellow_triangle
space	356	2500	red_square
None	0	1000	yellow_square
space	421	2500	red_square
None	0	1000	green_star
space	369	2000	red_square
None	0	1500	green_triangle
None	0	2500	yellow_square
None	0	1500	green_circle
None	0	2500	yellow_triangle
None	0	1000	yellow_square
None	0	2500	red_star
None	0	2500	blue_triangle
None	0	1500	red_circle
None	0	2500	yellow_circle
None	0	2000	yellow_triangle
None	0	2500	green_star
None	0	1500	red_circle
None	0	2000	blue_star
None	0	1000	green_square
None	0	1000	blue_triangle
space	384	1000	red_square
None	0	1000	red_circle
None	0	2000	blue_square
space	399	2500	red_square
None	0	2000	yellow_star
space	380	2000	red_square
space	411	2000	red_square
None	0	2500	blue_star
space	420	2500	red_square
None	0	1500	yellow_star
space	371	2000	red_square
space	379	1000	red_square
None	0	2000	red_circle
None	0	2500	red_triangle
None	0	2000	red_star
None	0	1500	green_triangle
space	408	1000	red_square
space	472	1000	red_square
None	0	1000	green_triangle
None	0	1500	green_circle
None	0	2500	green_circle
None	0	2000	red_circle
None	0	2000	yellow_circle
None	0	2000	blue_star
None	0	1500	green_triangle
None	0	1500	yellow_square
None	0	1000	blue_circle
None	0	1500	green_square
None	0	2000	red_circle
None	0	1500	red_triangle
None	0	2500	green_square
None	0	1000	blue_square
None	0	2000	red_circle
None	0	2500	yellow_square
None	0	1000	blue_star
space	465	2500	red_square
None	0	1500	blue_triangle
None	0	2500	blue_circle
space	411	2000	red_square
None	0	1000	green_star
None	0	1500	blue_circle
None	0	1000	yellow_triangle
None	0	2500	yellow_square
None	0	2000	green_square
None	0	1500	blue_star
None	0	1000	red_circle
None	0	2500	green_star
None	0	2000	yellow_square
space	436	2000	red_square
None	0	1500	red_star
None	0	2000	blue_square
space	477	1500	red_square
None	0	2000	yellow_star
None	0	2000	red_circle
None	0	1000	yellow_square
space	460	1000	red_square
None	0	2500	blue_square
space	421	1000	red_square
None	0	1000	blue_triangle
None	0	1000	red_star
None	0	1000	blue_square
None	0	1000	green_circle
None	0	1000	green_triangle
space	417	1500	red_square
None	0	1000	green_circle
None	0	1000	blue_star
None	0	1500	blue_triangle
None	0	2000	yellow_square
space	426	1500	red_square
space	499	1000	red_square
None	0	1500	blue_circle
None	0	2500	red_triangle
None	0	2500	green_star
None	0	1000	red_circle
None	0	1500	yellow_star
None	0	2500	yellow_circle
None	0	1500	blue_square
None	0	1500	red_circle
None	0	1000	red_circle
space	483	1000	red_square
None	0	1000	blue_star
space	427	1000	red_square
None	0	2500	green_circle
space	443	2000	red_square
space	371	1500	red_square
space	316	1500	red_square
None	0	2000	red_star
None	0	1000	blue_square
None	0	2500	red_star
None	0	2500	blue_square
None	0	1500	blue_square
None	0	2500	red_triangle
None	0	1000	yellow_circle
None	0	1500	red_star
None	0	1500	yellow_square
None	0	1000	yellow_square
None	0	2000	red_triangle
None	0	2000	blue_circle
None	0	1500	red_circle
None	0	2500	green_star
space	481	2500	red_square
space	422	2000	red_square
None	0	2000	red_triangle
None	0	1500	yellow_triangle
space	415	1000	red_square
None	0	1000	blue_circle
space	374	2500	red_square
None	0	2000	yellow_circle
None	0	2500	green_square
None	0	2500	yellow_square
None	0	1500	blue_square
None	0	1000	red_star
None	0	2500	blue_circle
None	0	2000	green_triangle
None	0	2500	red_star
None	0	2000	yellow_circle
None	0	2500	yellow_square
None	0	1000	green_square
space	394	2500	red_square
None	0	1500	green_square
space	445	1500	red_square
None	0	2500	green_star
None	0	1000	green_square
space	423	2500	red_square
None	0	1500	yellow_star
None	0	1000	red_star
space	362	1500	red_square
None	0	2500	blue_square
space	404	2000	red_square
None	0	1500	red_star
None	0	1000	blue_circle
space	436	2000	red_square
space	388	2500	red_square
None	0	2000	red_triangle
None	0	1500	yellow_triangle
None	0	2500	yellow_star
space	484	1500	red_square
space	461	1500	red_square
None	0	1000	yellow_circle
None	0	1000	yellow_star
None	0	2500	green_square
None	0	1000	green_circle
None	0	1500	blue_star
None	0	1000	green_triangle
None	0	1000	blue_square
None	0	2500	yellow_star
space	400	2500	red_square
None	0	2000	blue_square
None	0	2000	green_circle
None	0	1500	yellow_star
space	418	2500	red_square
None	0	1500	green_square
None	0	2000	green_triangle
None	0	2000	blue_circle
space	396	1000	red_triangle
None	0	2000	green_square
None	0	2000	yellow_triangle
None	0	1000	red_triangle
None	0	1500	red_triangle
space	451	2000	red_square
space	427	1000	red_square
space	409	2000	red_square
space	481	1000	red_square
space	417	1000	red_square
space	360	2500	red_square
None	0	2000	red_star
None	0	1000	blue_square
None	0	1500	yellow_triangle
space	441	2000	red_square
None	0	1000	red_triangle
space	440	1000	red_square
None	0	2500	red_circle
space	417	2500	red_square
None	0	1500	green_square
None	0	1500	green_circle
space	445	2000	red_square
space	492	1000	red_square
space	404	1500	red_square
space	341	2000	red_square
None	0	1000	blue_triangle
space	516	2000	red_square
space	380	2500	red_square
space	369	2500	red_square
space	363	1500	red_square
space	356	1000	red_square
space	307	2000	red_square
None	0	2000	blue_star
None	0	2000	green_square
None	0	1000	green_triangle
None	0	2500	yellow_triangle
space	363	1500	red_square
space	341	2000	red_square
None	0	2500	blue_star
None	0	2000	red_circle
None	0	2000	green_star
None	0	2500	red_circle
space	422	2000	red_square
None	0	2000	blue_star
None	0	2500	yellow_square
None	0	1500	blue_circle
None	0	1500	green_star
space	441	2500	red_square
space	394	1000	red_square
space	362	2500	red_square
None	0	1500	green_star
space	393	1500	red_square
None	0	2000	blue_star
space	414	1500	red_square
None	0	1500	blue_circle
None	0	1500	green_circle
None	0	2000	blue_triangle
space	433	2000	red_square
space	401	2000	red_square
None	0	1500	blue_square
None	0	1000	red_triangle
space	401	1000	red_square
None	0	2500	red_star
space	370	2500	red_square
None	0	1000	green_square
None	0	1500	green_triangle
space	388	1000	red_square
None	0	1500	red_star
None	0	2000	yellow_star
space	384	1500	red_square
None	0	2500	red_star
None	0	1000	yellow_square
None	0	2500	blue_square
None	0	2000	blue_star
None	0	2500	yellow_square
None	0	1500	green_square
space	422	1500	red_square
None	0	2500	red_star
None	0	2000	red_triangle
space	441	1500	red_square
None	0	1500	red_circle
space	451	1500	red_square
None	0	1500	red_triangle
None	0	1000	blue_circle
space	469	1500	red_square
space	550	1000	red_square
None	0	2000	green_circle
None	0	2000	red_star
None	0	1000	green_star
None	0	1000	red_star
None	0	1500	blue_square
space	417	1500	red_square
None	0	2500	yellow_triangle
None	0	2500	blue_triangle
None	0	1500	yellow_square
None	0	1500	blue_triangle
space	473	2500	red_square
None	0	1500	green_square
space	387	2500	red_triangle
space	493	2500	red_square
None	0	2000	red_triangle
None	0	2500	yellow_circle
space	496	1500	red_square
space	497	1500	red_square
None	0	2500	yellow_triangle
None	0	1000	blue_triangle
space	479	1500	red_square
None	0	2000	yellow_square
