trial	condition	rt	acc	resp	word	val	gra	col	l_targ	r_targ
1	2	2072	0	2	STREIT	S	N	2	A	S
2	3	2451	0	1	ABENDROT	S	P	2	B	R
3	1	5278	0	1	LUKRATIV	A	P	2	P	N
4	3	1246	0	1	VITAL	A	P	2	B	R
5	1	3166	0	1	KÜSTE	S	P	1	P	N
6	1	3475	0	1	BRILLANT	A	P	2	P	N
7	3	1435	0	2	KRANK	A	N	1	B	R
8	2	1671	0	2	PANIK	S	N	2	A	S
9	1	2154	0	1	FREUDE	S	P	1	P	N
10	2	1606	0	2	WISSEN	S	P	2	A	S
11	1	2830	0	2	MACHTLOS	A	N	1	P	N
12	2	1973	0	2	TERROR	S	N	2	A	S
13	2	2016	0	2	MONSTRUM	S	N	1	A	S
14	3	1759	0	1	PFIFFIG	A	P	2	B	R
15	3	1129	0	1	TRIST	A	N	2	B	R
16	3	1040	0	1	VERTRAUEN	S	P	2	B	R
17	1	2409	0	1	HUMAN	A	P	1	P	N
18	1	2283	0	2	LIEBLOS	A	N	1	P	N
19	1	1213	0	1	BEGABUNG	S	P	1	P	N
20	2	2212	0	1	FREUDIG	A	P	2	A	S
21	2	1146	1	2	WEIBLICH	A	P	1	A	S
22	2	1759	0	1	VERBOTEN	A	N	1	A	S
23	1	1862	0	2	VIRUS	S	N	2	P	N
24	3	2117	0	2	STRAFBAR	A	N	1	B	R
25	1	3370	0	2	BOSHAFT	A	N	2	P	N
26	1	1682	0	2	GEMETZEL	S	N	1	P	N
27	3	1729	0	1	SCHMERZ	S	N	2	B	R
28	2	1960	0	2	REVOLVER	S	N	1	A	S
29	1	2332	0	1	REICH	A	P	2	P	N
30	3	1211	0	1	VATER	S	P	2	B	R
31	3	2007	0	2	HOFFNUNG	S	P	1	B	R
32	2	2048	0	1	POSITIV	A	P	2	A	S
33	1	2368	0	1	FORTUNA	S	P	1	P	N
34	3	1776	0	1	HIMMEL	S	P	2	B	R
35	1	1644	0	2	IRRSINN	S	N	2	P	N
36	1	1615	0	1	FANTASIE	S	P	1	P	N
37	3	1932	0	2	GEMEIN	A	N	1	B	R
38	2	1384	0	2	ERZFEIND	S	N	1	A	S
39	1	1700	0	1	SOMMER	S	P	2	P	N
40	2	3434	0	2	FRIEDE	S	P	1	A	S
41	1	2569	0	2	TRAGISCH	A	N	1	P	N
42	1	2074	0	2	SABOTEUR	S	N	1	P	N
43	2	1907	0	1	TAKTVOLL	A	P	1	A	S
44	3	1454	0	1	HEILUNG	S	P	2	B	R
45	1	1937	0	2	PEINIGER	S	N	2	P	N
46	3	1451	0	2	TROSTLOS	A	N	1	B	R
47	1	1684	0	2	LEICHNAM	S	N	2	P	N
48	1	1387	0	2	UNHEIL	S	N	1	P	N
49	2	2281	0	2	GESCHENK	S	P	2	A	S
50	2	2977	0	2	GEWALT	S	N	2	A	S
51	3	1720	0	1	IDYLLE	S	P	2	B	R
52	3	872	0	1	EHRLICH	A	P	2	B	R
53	2	2190	0	1	SILBERN	A	P	2	A	S
54	3	1969	0	1	FRIEDEN	S	P	2	B	R
55	2	1294	0	2	MASSAGE	S	P	2	A	S
56	3	1476	0	2	SINNLICH	A	P	1	B	R
57	3	1535	1	2	STRAFTAT	S	N	2	B	R
58	2	4045	0	1	HILFLOS	A	N	2	A	S
59	3	2297	0	2	WEHRLOS	A	N	1	B	R
60	1	1710	0	2	GALGEN	S	N	1	P	N
61	3	1958	0	2	GRAUSAM	A	N	1	B	R
62	2	2017	0	2	HUMOR	S	P	2	A	S
63	3	2496	0	2	BEQUEM	A	P	1	B	R
64	3	1630	1	2	SCHLECHT	A	N	2	B	R
65	2	4729	0	1	ENTSETZT	A	N	1	A	S
66	2	1841	0	2	HARMONIE	S	P	2	A	S
67	3	3034	0	2	LEBENDIG	A	P	1	B	R
68	1	2290	0	2	ASOZIAL	A	N	2	P	N
69	2	2219	0	2	BLUME	S	P	1	A	S
70	1	2403	0	1	ENERGIE	S	P	2	P	N
71	3	1434	0	1	HERZLOS	A	N	2	B	R
72	3	2200	0	1	PARTNER	S	P	2	B	R
73	3	1432	0	2	RASTLOS	A	N	1	B	R
74	2	1229	0	2	KLUGHEIT	S	P	2	A	S
75	1	1790	0	1	STILVOLL	A	P	2	P	N
76	2	2971	0	2	ALPTRAUM	S	N	1	A	S
77	1	3512	0	2	INFERNO	S	N	2	P	N
78	2	2331	1	2	EINSAM	A	N	1	A	S
79	2	1804	0	1	UNBEQUEM	A	N	1	A	S
80	3	2827	0	1	HEITER	A	P	2	B	R
81	1	1673	0	2	VERLOGEN	A	N	1	P	N
82	3	2080	0	2	NOTFALL	S	N	1	B	R
83	3	1835	0	1	INSEL	S	P	2	B	R
84	1	2122	0	2	LAUNISCH	A	N	2	P	N
85	3	1639	0	2	SUPER	A	P	1	B	R
86	1	3814	0	1	KLARHEIT	S	P	2	P	N
87	1	1831	0	1	MUNTER	A	P	1	P	N
88	2	1696	0	2	TRENNUNG	S	N	1	A	S
89	2	1663	0	1	KREATIV	A	P	1	A	S
90	2	2852	0	1	MILITANT	A	N	2	A	S
91	1	1729	0	2	GIFTGAS	S	N	1	P	N
92	1	1569	0	1	ERFOLG	S	P	2	P	N
93	1	2388	0	1	PRIMA	A	P	1	P	N
94	3	2278	0	1	MASSAKER	S	N	2	B	R
95	3	1286	0	1	PEINLICH	A	N	2	B	R
96	1	1857	0	2	KRAFTLOS	A	N	2	P	N
97	1	1488	0	2	GEISEL	S	N	1	P	N
98	2	2060	0	1	ILLEGAL	A	N	2	A	S
99	1	2832	0	1	ROBUST	A	P	2	P	N
100	2	1632	0	1	SAUBER	A	P	2	A	S
101	2	2510	0	1	UNFAIR	A	N	1	A	S
102	2	2956	0	2	TALENT	S	P	2	A	S
103	1	1435	0	1	STARK	A	P	2	P	N
104	3	1340	0	1	VERRAT	S	N	2	B	R
105	1	2034	0	2	MORDTAT	S	N	2	P	N
106	3	1886	0	1	WEISHEIT	S	P	2	B	R
107	1	1544	0	1	SINNVOLL	A	P	2	P	N
108	2	2225	0	2	PSYCHOSE	S	N	1	A	S
109	3	1501	0	2	KORRUPT	A	N	1	B	R
110	1	2638	0	2	ATTENTAT	S	N	2	P	N
111	2	2357	0	2	WAHRHEIT	S	P	1	A	S
112	3	1875	0	2	FREIZEIT	S	P	1	B	R
113	1	1611	0	1	ZART	A	P	1	P	N
114	2	1834	0	2	GEFÜHL	S	P	2	A	S
115	3	1918	0	2	FREUDLOS	A	N	1	B	R
116	1	1918	0	1	GUTARTIG	A	P	2	P	N
117	2	1402	0	2	PARTY	S	P	2	A	S
118	1	2029	0	1	ZUHAUSE	S	P	2	P	N
119	3	2037	0	1	GESUND	A	P	2	B	R
120	1	1794	0	2	LUSTLOS	A	N	2	P	N
121	2	2005	0	2	UNTREUE	S	N	2	A	S
122	3	1983	0	2	SKLAVE	S	N	1	B	R
123	2	1978	0	1	LABIL	A	N	1	A	S
124	2	2256	0	1	PERFEKT	A	P	2	A	S
125	3	1466	0	1	FRÜHJAHR	S	P	2	B	R
126	2	2028	0	2	LEBEN	S	P	1	A	S
127	1	2427	0	1	SONNABEND	S	P	1	P	N
128	2	3129	0	2	PRACHT	S	P	2	A	S
129	1	1768	0	2	GEFAHR	S	N	1	P	N
130	3	1528	0	2	BLÜTE	S	P	1	B	R
131	2	1647	0	1	SCHLAU	A	P	2	A	S
132	3	3260	0	2	GEWINN	S	P	1	B	R
133	2	1734	0	1	BODENLOS	A	N	2	A	S
134	1	1559	0	2	SATAN	S	N	2	P	N
135	1	2019	0	2	LEPRA	S	N	1	P	N
136	1	1872	0	1	OPTIMAL	A	P	1	P	N
137	2	1406	0	1	TAPFER	A	P	1	A	S
138	2	2017	0	1	DEKADENT	A	N	1	A	S
139	3	1526	0	1	LIEB	A	P	2	B	R
140	2	2755	0	1	WARM	A	P	2	A	S
141	3	2255	0	1	OPTIMIST	S	P	2	B	R
142	3	1842	0	2	KÜSTE	S	P	1	B	R
143	3	909	0	2	TAPFER	A	P	1	B	R
144	2	1772	0	2	MONSTRUM	S	N	2	A	S
145	1	1546	0	1	IDYLLE	S	P	1	P	N
146	2	1773	0	1	ANMUTIG	A	P	2	A	S
147	1	2689	0	2	FURCHT	S	N	2	P	N
148	2	1371	0	1	TROSTLOS	A	N	2	A	S
149	2	970	0	1	ROBUST	A	P	2	A	S
150	3	1156	0	1	TAKTVOLL	A	P	2	B	R
151	1	1564	0	2	LAUNISCH	A	N	2	P	N
152	3	1290	0	2	IRRSINN	S	N	1	B	R
153	3	799	0	2	SATAN	S	N	1	B	R
154	1	2342	0	2	VERLETZT	A	N	2	P	N
155	3	1798	0	1	HALBTOT	A	N	2	B	R
156	1	1509	0	2	TYRANN	S	N	2	P	N
157	1	1832	0	2	BOSHAFT	A	N	1	P	N
158	2	1465	0	1	SPONTAN	A	P	2	A	S
159	2	1007	0	2	NATUR	S	P	2	A	S
160	2	1989	0	2	HIMMEL	S	P	1	A	S
161	1	1812	0	1	SONNABEND	S	P	2	P	N
162	1	959	0	2	VIRUS	S	N	1	P	N
163	1	1380	0	1	BLUME	S	P	2	P	N
164	3	1821	0	2	TODFEIND	S	N	1	B	R
165	3	1045	1	2	HERZLOS	A	N	2	B	R
166	1	2869	0	1	RETTER	S	P	1	P	N
167	1	1432	0	1	FREUDE	S	P	2	P	N
168	2	1744	0	2	PANIK	S	N	1	A	S
169	1	1740	0	1	SATT	A	P	2	P	N
170	2	2236	0	1	TOPFIT	A	P	1	A	S
171	2	2154	1	2	ASCHFAHL	A	N	2	A	S
172	2	1715	0	2	FREIHEIT	S	P	1	A	S
173	1	1901	0	2	TUMOR	S	N	2	P	N
174	3	1246	0	2	LEBEN	S	P	1	B	R
175	1	1883	0	2	TREULOS	A	N	1	P	N
176	1	1323	0	1	GEFÜHL	S	P	1	P	N
177	3	1252	0	1	ERDBEERE	S	P	2	B	R
178	2	1498	0	1	TREU	A	P	2	A	S
179	1	2494	0	2	VERRAT	S	N	2	P	N
180	2	1800	0	2	HUMOR	S	P	1	A	S
181	1	1417	0	1	WERTVOLL	A	P	2	P	N
182	1	1075	0	2	PLEITE	A	N	1	P	N
183	2	1239	0	1	FROH	A	P	2	A	S
184	3	1142	0	2	TALENT	S	P	1	B	R
185	1	1395	0	1	NETT	A	P	2	P	N
186	3	1413	0	1	BLUTIG	A	N	2	B	R
187	1	2290	0	2	UNHEIL	S	N	2	P	N
188	1	1124	0	1	HARMONIE	S	P	1	P	N
189	2	1395	0	1	UNBEQUEM	A	N	1	A	S
190	2	1632	0	1	GRATIS	A	P	2	A	S
191	3	1885	0	2	GESCHENK	S	P	1	B	R
192	3	2044	0	1	HUMORLOS	A	N	2	B	R
193	2	2129	0	1	ENTSETZT	A	N	2	A	S
194	3	1084	0	2	PRIMA	A	P	1	B	R
195	2	1262	0	1	STABIL	A	P	2	A	S
196	3	1289	0	2	BANKROTT	A	N	1	B	R
197	3	1548	0	1	LUSTLOS	A	N	2	B	R
198	2	1369	0	2	MORDFALL	S	N	1	A	S
199	3	1967	0	1	BESTIE	S	N	2	B	R
200	1	1432	0	2	ANOMAL	A	N	1	P	N
201	3	1339	0	1	ABSTURZ	S	N	2	B	R
202	2	1282	0	1	AKTIV	A	P	2	A	S
203	3	1840	0	2	UNGESUND	A	N	1	B	R
204	3	1156	0	2	ERHOLUNG	S	P	1	B	R
205	2	2331	0	1	NEIDISCH	A	N	1	A	S
206	2	944	0	2	SOMMER	S	P	2	A	S
207	3	1476	0	1	REVOLVER	S	N	2	B	R
208	1	1708	0	1	LUKRATIV	A	P	1	P	N
209	2	1330	0	1	GRAUSAM	A	N	2	A	S
210	1	2478	0	2	INTRIGE	S	N	2	P	N
211	2	2863	0	1	BRUTAL	A	N	2	A	S
212	3	1207	0	2	VATER	S	P	1	B	R
213	1	1097	0	1	FORTUNA	S	P	2	P	N
214	3	1681	0	2	EROTIK	S	P	1	B	R
215	1	1384	0	2	LEICHNAM	S	N	1	P	N
216	1	1216	0	1	HEITER	A	P	1	P	N
217	3	1809	0	1	TRIST	A	N	2	B	R
218	2	1628	0	1	SINNVOLL	A	P	1	A	S
219	1	1631	0	1	BEQUEM	A	P	1	P	N
220	2	2931	0	2	ATEMNOT	S	N	1	A	S
221	1	1677	0	2	ZWECKLOS	A	N	2	P	N
222	2	2021	0	1	PANISCH	A	N	1	A	S
223	2	1154	0	2	SCHMERZ	S	N	2	A	S
224	3	1062	0	1	MASSAKER	S	N	2	B	R
225	3	774	0	1	MUTIG	A	P	2	B	R
226	3	973	0	2	WISSEN	S	P	1	B	R
227	1	2143	0	2	DEKADENT	A	N	1	P	N
228	1	1362	0	2	GEWALT	S	N	1	P	N
229	1	1617	0	2	PEINLICH	A	N	1	P	N
230	2	2012	0	2	ERZFEIND	S	N	1	A	S
231	2	1130	0	1	TOLERANT	A	P	2	A	S
232	2	2213	0	2	ENERGIE	S	P	1	A	S
233	1	1506	0	1	SCHLAU	A	P	2	P	N
234	3	1141	0	2	MORDTAT	S	N	1	B	R
235	1	2644	0	1	WARM	A	P	2	P	N
236	1	1253	0	1	FREUND	S	P	1	P	N
237	3	1608	0	2	KOLLAPS	S	N	1	B	R
238	2	1206	0	1	STILVOLL	A	P	1	A	S
239	1	1423	0	1	MUSIK	S	P	1	P	N
240	3	1096	0	2	BELIEBT	A	P	1	B	R
241	3	1259	0	1	VITAL	A	P	2	B	R
242	2	2708	0	1	BUNT	A	P	2	A	S
243	1	1765	0	1	SUPER	A	P	1	P	N
244	3	1525	0	2	STARK	A	P	1	B	R
245	1	1581	0	2	TRENNUNG	S	N	2	P	N
246	3	1775	0	2	UNFALL	S	N	1	B	R
247	1	1362	0	1	FRIEDEN	S	P	2	P	N
248	2	1758	0	2	KLARHEIT	S	P	1	A	S
249	3	1377	0	1	WAHRHEIT	S	P	2	B	R
250	1	2256	0	1	ZART	A	P	2	P	N
251	2	1937	0	1	SINNLICH	A	P	1	A	S
252	3	1372	0	2	ABENDROT	S	P	1	B	R
253	1	1251	0	1	SONNIG	A	P	2	P	N
254	2	1903	0	2	UNTREUE	S	N	1	A	S
255	3	1607	0	2	KREATIV	A	P	1	B	R
256	1	1439	0	2	SABOTEUR	S	N	2	P	N
257	2	4002	0	2	PARADIES	S	P	1	A	S
258	1	1819	0	1	GENIAL	A	P	1	P	N
259	3	966	0	1	FRAULICH	A	P	2	B	R
260	1	2575	0	1	HUMAN	A	P	1	P	N
261	2	2845	0	2	KIRSCHE	S	P	1	A	S
262	3	1753	0	2	FREIZEIT	S	P	1	B	R
263	2	2810	0	1	BODENLOS	A	N	2	A	S
264	2	1047	0	2	ÜBERFALL	S	N	2	A	S
265	3	1355	0	2	TRAUMA	S	N	1	B	R
266	2	1360	0	1	ELEND	A	N	2	A	S
267	1	1693	0	2	AGGRESSION	S	N	1	P	N
268	2	1567	0	1	UNFAIR	A	N	1	A	S
269	1	2059	0	2	GEMETZEL	S	N	2	P	N
270	3	924	0	1	LIEBLOS	A	N	2	B	R
271	2	2911	0	1	MILITANT	A	N	2	A	S
272	3	2908	0	1	OHRFEIGE	S	N	2	B	R
273	2	1640	0	1	WEHRLOS	A	N	2	A	S
274	1	2236	0	2	MACHTLOS	A	N	1	P	N
275	1	1840	0	1	SPRITZIG	A	P	2	P	N
276	1	1360	0	2	VERWEINT	A	N	2	P	N
277	2	3178	0	2	TOLERANZ	S	P	2	A	S
278	2	1877	0	2	DROHUNG	S	N	1	A	S
279	3	1176	0	2	SEKTE	S	N	1	B	R
280	2	2083	0	2	UNMENSCH	S	N	2	A	S
281	3	1442	0	1	ZIELLOS	A	N	2	B	R
282	1	1254	0	2	MORDFALL	S	N	1	P	N
283	2	1156	0	2	KÜSTE	S	P	2	A	S
284	3	1283	0	2	MORDTAT	S	N	1	B	R
285	1	2121	0	1	ERFOLG	S	P	1	P	N
286	2	1232	0	2	NATUR	S	P	2	A	S
287	3	949	0	1	FRAULICH	A	P	2	B	R
288	1	2809	0	1	FORTUNA	S	P	1	P	N
289	2	1657	0	2	FREUDE	S	P	2	A	S
290	3	1142	0	1	PLEITE	A	N	2	B	R
291	1	1786	0	1	HEILFROH	A	P	1	P	N
292	2	2029	0	2	TYRANN	S	N	2	A	S
293	1	2161	0	1	SPRITZIG	A	P	1	P	N
294	3	1005	0	1	FREUDLOS	A	N	2	B	R
295	1	1876	0	1	POSITIV	A	P	1	P	N
296	2	1988	0	1	TRIST	A	N	2	A	S
297	3	966	0	2	VIRUS	S	N	1	B	R
298	2	1528	0	2	BEGABUNG	S	P	1	A	S
299	2	1804	0	1	GIERIG	A	N	1	A	S
300	3	935	0	1	VERRAT	S	N	2	B	R
301	2	2202	0	1	TAPFER	A	P	1	A	S
302	1	1527	0	2	UNFAIR	A	N	1	P	N
303	2	2162	0	2	GEISEL	S	N	1	A	S
304	1	2036	0	2	TODFEIND	S	N	2	P	N
305	3	1606	0	2	HENKER	S	N	1	B	R
306	2	1861	0	2	AGGRESSION	S	N	2	A	S
307	3	1520	0	2	PERFEKT	A	P	1	B	R
308	2	2295	0	2	ERDBEERE	S	P	1	A	S
309	1	2208	0	1	TOLL	A	P	2	P	N
310	1	1235	0	1	LEBEN	S	P	1	P	N
311	1	841	0	1	PFIFFIG	A	P	1	P	N
312	2	1286	0	2	SKLAVE	S	N	2	A	S
313	2	873	0	2	GEFAHR	S	N	2	A	S
314	3	909	0	1	FRIEDEN	S	P	2	B	R
315	2	2115	0	1	UNGESUND	A	N	2	A	S
316	3	1758	0	1	WEISHEIT	S	P	2	B	R
317	3	1002	0	2	SAUBER	A	P	1	B	R
318	3	1186	0	1	REVOLVER	S	N	2	B	R
319	2	1311	0	2	TERROR	S	N	2	A	S
320	1	1600	0	2	IRRSINN	S	N	2	P	N
321	2	1355	0	2	ERHOLUNG	S	P	2	A	S
322	1	1485	0	1	STARK	A	P	1	P	N
323	2	2356	0	2	INFERNO	S	N	2	A	S
324	2	733	0	2	SOMMER	S	P	2	A	S
325	3	966	0	2	ANGRIFF	S	N	1	B	R
326	1	1419	0	2	SCHMERZ	S	N	1	P	N
327	3	1106	0	1	EROTIK	S	P	2	B	R
328	3	1862	0	1	UNFALL	S	N	2	B	R
329	1	1334	0	1	AKTIV	A	P	1	P	N
330	3	1122	0	2	PANIK	S	N	1	B	R
331	1	2517	0	2	HERZLOS	A	N	1	P	N
332	1	1681	0	1	ABENDROT	S	P	2	P	N
333	2	2275	0	1	SCHLECHT	A	N	2	A	S
334	2	1032	0	2	HIMMEL	S	P	1	A	S
335	2	1809	0	2	LEICHNAM	S	N	2	A	S
336	1	3691	0	2	ZERLUMPT	A	N	1	P	N
337	1	1575	0	1	LEBENDIG	A	P	1	P	N
338	1	1222	0	2	BOSHAFT	A	N	1	P	N
339	3	813	0	1	GENIAL	A	P	2	B	R
340	3	1120	0	1	REIZVOLL	A	P	2	B	R
341	1	1374	0	2	ATTENTAT	S	N	1	P	N
342	1	1503	0	2	TROSTLOS	A	N	2	P	N
343	2	1935	0	2	UNMENSCH	S	N	1	A	S
344	1	1450	0	1	FROH	A	P	2	P	N
345	2	3028	0	1	NETT	A	P	1	A	S
346	2	1392	0	1	ENTSETZT	A	N	1	A	S
347	2	1068	0	1	GUTARTIG	A	P	1	A	S
348	1	1371	0	2	LAUNISCH	A	N	1	P	N
349	3	1234	0	2	TOXISCH	A	N	1	B	R
350	1	1419	0	2	LABIL	A	N	2	P	N
351	1	763	0	1	TALENT	S	P	2	P	N
352	3	884	0	1	KORRUPT	A	N	2	B	R
353	2	1701	0	1	UNBEQUEM	A	N	2	A	S
354	1	1559	0	1	ROBUST	A	P	2	P	N
355	2	2019	0	2	ATEMNOT	S	N	2	A	S
356	1	2638	0	2	BLUTTAT	S	N	2	P	N
357	1	1435	0	1	SATT	A	P	1	P	N
358	2	1293	0	1	GRAUSAM	A	N	2	A	S
359	3	833	1	2	KREATIV	A	P	2	B	R
360	1	1919	0	1	SCHLAU	A	P	2	P	N
361	3	2028	0	1	STRAFBAR	A	N	2	B	R
362	1	1990	0	1	MUSIK	S	P	1	P	N
363	1	1093	0	1	SUPER	A	P	2	P	N
364	2	1288	0	2	GEFÜHL	S	P	2	A	S
365	2	1156	1	2	WEISE	A	P	1	A	S
366	3	1143	0	2	EINSAM	A	N	1	B	R
367	3	1912	1	2	ERFÜLLUNG	S	P	2	B	R
368	2	2912	0	2	GIFTGAS	S	N	1	A	S
369	3	1409	0	1	PEINIGER	S	N	2	B	R
370	2	2536	0	1	BELIEBT	A	P	2	A	S
371	3	1386	0	1	ERZFEIND	S	N	2	B	R
372	3	967	0	1	FURCHT	S	N	2	B	R
373	2	1106	0	1	WERTVOLL	A	P	1	A	S
374	3	940	0	1	DROHUNG	S	N	2	B	R
375	1	1440	0	2	TRAUMA	S	N	1	P	N
376	3	1377	0	2	RASTLOS	A	N	1	B	R
377	2	2553	0	1	BODENLOS	A	N	2	A	S
378	3	3122	0	2	LEBLOS	A	N	1	B	R
379	3	1558	0	1	PSYCHOSE	S	N	2	B	R
380	2	1910	0	2	WISSEN	S	P	1	A	S
381	2	2519	1	2	ASCHFAHL	A	N	2	A	S
382	3	1839	0	1	GESCHENK	S	P	2	B	R
383	1	2188	0	2	ALPTRAUM	S	N	1	P	N
384	2	2341	0	1	BANKROTT	A	N	1	A	S
385	1	1844	0	1	SONNABEND	S	P	2	P	N
386	2	1708	0	2	FREIHEIT	S	P	1	A	S
387	3	1267	0	2	TRAGISCH	A	N	1	B	R
388	1	1684	0	2	NOTFALL	S	N	2	P	N
389	3	1480	0	2	GRANDIOS	A	P	1	B	R
390	1	1274	0	1	GEWINN	S	P	2	P	N
391	1	941	0	1	IDYLLE	S	P	2	P	N
392	3	910	0	1	GRUSELIG	A	N	2	B	R
393	2	1460	0	1	VERBOTEN	A	N	2	A	S
394	1	1317	0	2	PEINLICH	A	N	1	P	N
395	2	2013	0	1	ANMUTIG	A	P	2	A	S
396	1	1491	0	1	FRIEDE	S	P	2	P	N
397	2	2034	0	1	KRAFTLOS	A	N	1	A	S
398	2	1479	0	2	HEILUNG	S	P	1	A	S
399	3	1210	0	1	FERIEN	S	P	2	B	R
400	3	1538	0	2	STRAFTAT	S	N	1	B	R
401	3	1718	0	1	GEWALT	S	N	2	B	R
402	1	3357	0	2	BRUTAL	A	N	1	P	N
403	1	1825	0	2	ILLEGAL	A	N	2	P	N
404	1	1205	0	2	GEMETZEL	S	N	1	P	N
405	2	1485	0	1	SILBERN	A	P	1	A	S
406	2	1231	0	2	MUTTER	S	P	2	A	S
407	2	1104	0	2	SEKTE	S	N	1	A	S
408	1	1359	0	2	GEMEIN	A	N	1	P	N
409	3	895	0	1	HUMORLOS	A	N	2	B	R
410	1	1336	0	1	PRIMA	A	P	2	P	N
411	1	1342	0	1	FREUDIG	A	P	2	P	N
412	3	863	0	1	STABIL	A	P	2	B	R
413	2	2090	0	2	BESTIE	S	N	2	A	S
414	1	1467	0	2	TRAURIG	A	N	2	P	N
415	3	1340	0	2	STILVOLL	A	P	1	B	R
416	3	892	0	1	FRÜHJAHR	S	P	2	B	R
417	2	2100	0	1	GESUND	A	P	1	A	S
418	1	1471	0	2	SADISMUS	S	N	2	P	N
419	3	1108	0	2	ASOZIAL	A	N	1	B	R
420	1	1661	0	2	HALBTOT	A	N	1	P	N
