response	response_time	trial_ISI	trial_shape
space	541	2000	red_square
None	0	1000	green_circle
None	0	1000	yellow_circle
space	403	1000	red_square
None	0	2500	red_triangle
None	0	1000	blue_square
space	416	1500	red_square
None	0	2500	red_circle
space	391	1500	red_square
None	0	1000	blue_circle
None	0	2000	yellow_triangle
None	0	2000	blue_square
None	0	1000	blue_star
None	0	1000	green_square
None	0	2000	green_circle
None	0	1500	red_triangle
space	474	1500	red_square
None	0	1000	green_circle
space	546	1000	red_square
None	0	1500	red_star
None	0	1500	blue_square
None	0	2500	red_circle
None	0	2500	blue_circle
None	0	1000	blue_star
space	403	1500	red_square
space	657	2500	red_square
space	511	2000	red_square
space	478	2000	red_square
space	429	2000	red_square
None	0	1500	red_circle
None	0	1000	yellow_star
None	0	2000	yellow_circle
None	0	2500	green_square
None	0	1500	red_triangle
None	0	2500	green_triangle
None	0	2000	yellow_star
None	0	2000	yellow_triangle
None	0	1500	yellow_triangle
space	535	2500	red_square
None	0	2000	yellow_square
None	0	1000	yellow_square
None	0	2500	green_circle
None	0	1500	green_circle
None	0	1500	yellow_square
space	448	2000	red_square
None	0	2000	red_triangle
space	598	2500	red_square
None	0	2500	yellow_square
space	482	2000	red_square
None	0	2500	blue_star
space	452	1500	red_square
None	0	1000	yellow_square
None	0	2000	red_circle
None	0	2000	yellow_star
None	0	1000	yellow_triangle
None	0	1500	blue_square
space	472	2000	red_square
None	0	1000	yellow_star
None	0	2500	blue_circle
None	0	2000	green_circle
None	0	1000	blue_triangle
None	0	1000	blue_star
space	439	2000	red_square
space	550	1500	red_square
None	0	1500	blue_star
None	0	1000	blue_circle
None	0	1000	green_square
None	0	1500	blue_star
None	0	1000	red_star
None	0	2500	green_circle
None	0	2000	green_square
None	0	2000	blue_circle
space	510	2500	red_square
None	0	1000	red_circle
None	0	2500	red_circle
space	581	2500	red_square
None	0	1500	blue_star
None	0	2000	green_square
None	0	1000	red_star
None	0	2500	yellow_circle
None	0	1000	green_star
None	0	2500	yellow_star
None	0	1000	green_triangle
None	0	2500	green_square
space	470	2500	red_square
None	0	2500	green_circle
None	0	2000	green_square
None	0	1500	green_star
space	538	2000	red_square
None	0	2000	red_circle
space	601	1000	red_square
space	697	2000	red_square
None	0	1500	blue_star
None	0	1000	yellow_circle
None	0	2500	blue_square
None	0	2000	red_star
None	0	1000	yellow_triangle
None	0	2500	blue_star
None	0	1000	red_circle
None	0	1500	blue_square
space	400	2500	red_square
None	0	1500	green_star
None	0	1500	red_triangle
space	477	1500	red_square
None	0	1500	red_star
None	0	2500	green_star
space	501	1500	red_square
None	0	1500	green_triangle
None	0	2000	blue_triangle
None	0	1000	green_star
None	0	2500	green_square
space	513	2000	red_square
None	0	1500	red_triangle
None	0	2000	yellow_square
None	0	2000	yellow_square
None	0	1500	blue_triangle
space	506	2000	red_square
None	0	2500	green_triangle
None	0	1000	blue_triangle
None	0	2000	green_square
None	0	2000	green_triangle
None	0	1000	yellow_triangle
None	0	1500	blue_square
None	0	2500	blue_square
None	0	1500	blue_square
None	0	2500	green_square
None	0	1500	yellow_circle
space	556	1000	red_square
space	603	1000	red_square
None	0	1500	yellow_circle
None	0	1500	blue_square
space	493	1000	red_square
None	0	1000	yellow_square
space	388	1000	red_square
None	0	2500	green_circle
space	461	1500	red_square
None	0	1000	red_star
None	0	2500	red_triangle
space	450	1500	red_square
None	0	1500	red_triangle
None	0	2500	blue_star
None	0	1500	blue_triangle
space	438	1000	red_square
None	0	2000	blue_triangle
None	0	2500	yellow_star
None	0	1500	blue_circle
None	0	2000	green_square
space	451	1000	red_square
None	0	1000	green_triangle
space	530	2000	red_square
None	0	1000	yellow_circle
None	0	1000	yellow_square
None	0	2000	blue_square
None	0	1000	red_star
None	0	1000	green_circle
None	0	2000	blue_triangle
None	0	1000	green_triangle
None	0	1500	yellow_circle
space	502	2000	red_square
space	470	1000	red_square
None	0	1000	yellow_square
None	0	2500	yellow_circle
None	0	2000	yellow_star
None	0	1000	red_star
None	0	1000	red_triangle
None	0	1000	green_square
space	447	2500	red_square
None	0	1000	green_circle
None	0	2500	blue_circle
None	0	1000	blue_triangle
None	0	1500	yellow_triangle
space	563	2500	red_square
space	537	1000	red_square
None	0	2500	yellow_triangle
None	0	2000	red_star
space	645	1000	red_square
None	0	2500	green_circle
space	578	2500	red_square
None	0	1500	red_triangle
space	601	2500	red_square
None	0	2500	green_square
None	0	2000	yellow_square
space	540	1000	red_square
None	0	2500	red_triangle
None	0	1000	yellow_circle
space	476	1000	red_square
space	537	2000	red_square
None	0	2500	blue_circle
None	0	2500	red_star
None	0	2000	green_star
None	0	2000	green_star
space	526	2500	red_square
None	0	2000	yellow_triangle
space	491	2000	red_square
None	0	1500	green_triangle
None	0	1500	red_triangle
None	0	1500	red_star
None	0	2500	yellow_square
None	0	2500	blue_square
None	0	2500	red_circle
None	0	2000	blue_circle
space	484	1000	red_square
space	491	2500	red_square
space	512	1500	red_square
space	414	2000	red_square
None	0	2000	red_star
space	525	2500	red_square
None	0	1000	blue_square
None	0	2500	blue_square
None	0	1500	blue_square
None	0	2000	green_triangle
None	0	2500	green_triangle
space	487	1500	red_square
space	436	1000	red_square
space	379	2000	red_square
space	467	1000	red_square
None	0	2500	yellow_square
None	0	2500	yellow_star
None	0	1500	blue_triangle
None	0	1500	yellow_square
None	0	2000	red_circle
None	0	2000	green_star
None	0	2000	red_star
None	0	2500	blue_star
None	0	2500	blue_square
None	0	2000	blue_triangle
None	0	1000	red_triangle
None	0	2000	green_square
None	0	1000	yellow_square
None	0	1000	red_triangle
None	0	1500	red_triangle
None	0	2500	green_star
space	510	2000	red_square
None	0	2000	blue_square
None	0	1500	red_circle
space	531	1500	red_square
None	0	1500	yellow_square
space	458	2000	red_square
None	0	1000	blue_square
None	0	2500	blue_circle
None	0	1500	red_circle
space	519	2500	red_square
None	0	2500	blue_triangle
space	475	1500	red_square
None	0	1000	red_star
space	560	1500	red_square
space	526	2000	red_square
None	0	1500	blue_circle
None	0	2500	yellow_star
space	553	1500	red_square
None	0	2500	red_star
space	551	2500	red_square
None	0	1500	green_star
space	518	1000	red_square
None	0	2000	red_circle
None	0	1500	red_star
None	0	2000	yellow_square
None	0	2500	blue_triangle
space	500	2000	red_square
None	0	2500	blue_star
space	446	1500	red_square
None	0	2000	green_square
space	474	2000	red_square
None	0	2500	green_square
None	0	2000	yellow_star
None	0	1500	red_star
None	0	2000	red_triangle
space	544	1000	red_square
space	583	1000	red_square
None	0	1500	green_square
None	0	2500	yellow_triangle
None	0	2500	red_star
space	475	1000	red_square
None	0	1500	yellow_circle
space	588	1500	red_square
space	470	1500	red_square
None	0	2500	red_circle
None	0	2000	green_star
None	0	2500	blue_square
space	558	1000	red_square
space	542	2000	red_square
None	0	1500	yellow_star
space	534	2500	red_square
space	492	1000	red_square
None	0	1000	green_square
None	0	1500	red_circle
None	0	2500	green_star
None	0	1500	green_triangle
None	0	2500	yellow_square
space	469	1000	red_square
space	460	2000	red_square
space	420	1500	red_square
space	321	2500	red_square
None	0	1500	red_circle
space	520	1000	red_square
space	384	1500	red_square
None	0	1000	red_triangle
None	0	2000	blue_circle
space	556	2000	red_square
None	0	2500	yellow_square
None	0	2000	red_triangle
None	0	2500	green_circle
None	0	2000	blue_star
None	0	1000	red_circle
space	533	1500	red_square
None	0	2000	yellow_star
space	550	1500	red_square
space	527	1500	red_square
None	0	2500	yellow_circle
None	0	1500	green_triangle
None	0	2000	red_circle
None	0	1500	red_star
None	0	2500	red_circle
None	0	1000	yellow_triangle
None	0	2000	blue_triangle
space	469	1500	red_square
space	511	2000	red_square
None	0	1000	yellow_triangle
None	0	1500	green_triangle
space	455	1000	red_square
