trial	condition	rt	acc	resp	word	val	gra	col	l_targ	r_targ
1	2	2283	0	2	ANMUTIG	A	P	2	S	A
2	3	2303	0	1	SONNABEND	S	P	2	B	R
3	1	2786	0	2	AKTIV	A	P	2	N	P
4	3	1735	0	1	ERFOLG	S	P	2	B	R
5	1	1656	0	2	GESCHENK	S	P	1	N	P
6	1	1871	0	2	SINNLICH	A	P	1	N	P
7	3	2307	0	1	ELEND	A	N	2	B	R
8	2	1915	0	1	PEINIGER	S	N	1	S	A
9	1	3844	0	1	LEBLOS	A	N	2	N	P
10	2	1387	0	1	GRANATE	S	N	1	S	A
11	1	3616	0	1	MORDTAT	S	N	2	N	P
12	2	1965	0	2	PLANLOS	A	N	2	S	A
13	2	1156	0	2	BRUTAL	A	N	2	S	A
14	3	1837	0	2	LEBENDIG	A	P	1	B	R
15	3	900	0	1	INTRIGE	S	N	2	B	R
16	3	856	0	1	ENTSETZT	A	N	2	B	R
17	1	1804	0	2	BEGABUNG	S	P	2	N	P
18	1	1217	0	1	KRAFTLOS	A	N	1	N	P
19	1	1104	0	1	GRAUSAM	A	N	2	N	P
20	2	1721	0	1	SCHMERZ	S	N	1	S	A
21	2	964	0	1	HENKER	S	N	1	S	A
22	2	788	0	1	INFERNO	S	N	1	S	A
23	1	2355	0	2	TAKTVOLL	A	P	1	N	P
24	3	1636	0	2	MASSAKER	S	N	1	B	R
25	1	6833	0	1	PSYCHOSE	S	N	1	N	P
26	1	3011	0	2	KIRSCHE	S	P	2	N	P
27	3	2716	0	1	VERLETZT	A	N	2	B	R
28	2	5844	0	1	GEISEL	S	N	1	S	A
29	1	3429	0	1	ABSTURZ	S	N	2	N	P
30	3	1506	0	1	SKLAVE	S	N	2	B	R
31	3	1126	0	2	OHRFEIGE	S	N	1	B	R
32	2	1730	0	1	MUSIK	S	P	2	S	A
33	1	2089	0	2	SOMMER	S	P	1	N	P
34	3	1499	0	2	SEKTE	S	N	1	B	R
35	1	3424	0	2	INSEL	S	P	2	N	P
36	1	2075	0	1	SCHLACHT	S	N	2	N	P
37	3	2150	0	2	UNHEIL	S	N	1	B	R
38	2	2143	0	1	BLÜTE	S	P	1	S	A
39	1	1976	0	1	ATEMNOT	S	N	2	N	P
40	2	1344	0	1	GALGEN	S	N	1	S	A
41	1	1970	0	1	KORRUPT	A	N	1	N	P
42	1	818	0	1	TODFEIND	S	N	1	N	P
43	2	1898	0	1	GREUEL	S	N	1	S	A
44	3	2113	0	1	UNTREUE	S	N	2	B	R
45	1	1651	0	1	FOLTER	S	N	1	N	P
46	3	1999	0	1	BELIEBT	A	P	2	B	R
47	1	2142	0	2	KLUGHEIT	S	P	2	N	P
48	1	1385	0	1	ATTENTAT	S	N	1	N	P
49	2	1559	0	2	WEHRLOS	A	N	2	S	A
50	2	800	0	2	LAUNISCH	A	N	1	S	A
51	3	2417	0	2	VERTRAUT	A	P	1	B	R
52	3	670	0	2	ZUKUNFT	S	P	1	B	R
53	2	1306	0	1	WEISHEIT	S	P	2	S	A
54	3	2634	0	2	TREULOS	A	N	1	B	R
55	2	1623	0	2	SCHLECHT	A	N	2	S	A
56	3	1720	0	1	TREU	A	P	2	B	R
57	3	583	0	1	PLEITE	A	N	2	B	R
58	2	2409	0	2	TRAGISCH	A	N	1	S	A
59	3	4143	0	1	HEILFROH	A	P	2	B	R
60	1	4366	0	1	GEWALT	S	N	2	N	P
61	3	1540	0	1	WISSEN	S	P	2	B	R
62	2	1766	0	2	WARM	A	P	1	S	A
63	3	1373	0	1	SPONTAN	A	P	2	B	R
64	3	590	0	1	STREIT	S	N	2	B	R
65	2	2021	0	1	UNRECHT	S	N	1	S	A
66	2	1843	0	2	BLUTIG	A	N	1	S	A
67	3	2359	0	2	LEPRA	S	N	1	B	R
68	1	1351	0	2	EHRLICH	A	P	2	N	P
69	2	1655	0	2	BUNT	A	P	2	S	A
70	1	1765	0	1	LABIL	A	N	1	N	P
71	3	4110	0	2	BESTIE	S	N	1	B	R
72	3	1046	0	2	HOFFNUNG	S	P	1	B	R
73	3	979	0	2	HEILUNG	S	P	1	B	R
74	2	3995	0	2	RASTLOS	A	N	2	S	A
75	1	1408	0	2	TOLERANZ	S	P	2	N	P
76	2	2873	0	1	FRIEDE	S	P	1	S	A
77	1	4692	0	1	PEINLICH	A	N	2	N	P
78	2	5646	0	2	NETT	A	P	1	S	A
79	2	1482	0	2	BANKROTT	A	N	2	S	A
80	3	1325	0	1	KRANK	A	N	2	B	R
81	1	1799	0	1	REVOLVER	S	N	2	N	P
82	3	1990	0	2	LUKRATIV	A	P	1	B	R
83	3	579	0	2	ZIELLOS	A	N	1	B	R
84	1	4252	0	1	VERWEINT	A	N	1	N	P
85	3	1421	0	2	VERBOTEN	A	N	1	B	R
86	1	3010	0	2	LIEB	A	P	2	N	P
87	1	777	0	2	MUTIG	A	P	1	N	P
88	2	1658	0	2	HUMAN	A	P	2	S	A
89	2	776	0	2	SCHLAU	A	P	2	S	A
90	2	1160	0	2	WEISE	A	P	1	S	A
91	1	1215	0	1	TUMOR	S	N	1	N	P
92	1	1399	0	2	FREIZEIT	S	P	1	N	P
93	1	1068	1	1	BEFREIUNG	S	P	1	N	P
94	3	2937	0	1	ZERLUMPT	A	N	2	B	R
95	3	658	0	1	FROH	A	P	2	B	R
96	1	1764	0	2	KREATIV	A	P	2	N	P
97	1	672	0	2	ZUHAUSE	S	P	2	N	P
98	2	2644	0	1	STRAFTAT	S	N	1	S	A
99	1	3142	0	2	REICH	A	P	1	N	P
100	2	4545	0	2	HILFLOS	A	N	2	S	A
101	2	809	0	1	PARTNER	S	P	1	S	A
102	2	1086	0	2	UNFAIR	A	N	1	S	A
103	1	1521	0	2	VATER	S	P	2	N	P
104	3	1741	0	1	IRRSINN	S	N	2	B	R
105	1	3052	0	1	ÜBERFALL	S	N	1	N	P
106	3	1801	0	1	ERFÜLLUNG	S	P	2	B	R
107	1	1854	0	1	DROHUNG	S	N	1	N	P
108	2	1229	0	1	URLAUB	S	P	1	S	A
109	3	1851	0	1	PANIK	S	N	2	B	R
110	1	1924	0	2	ERDBEERE	S	P	1	N	P
111	2	1463	0	2	LOYAL	A	P	1	S	A
112	3	1780	0	2	GEFAHR	S	N	1	B	R
113	1	2034	0	2	FREUDIG	A	P	2	N	P
114	2	3233	0	1	BLUME	S	P	1	S	A
115	3	5110	0	1	STABIL	A	P	2	B	R
116	1	2597	0	2	FORTUNA	S	P	1	N	P
117	2	1659	0	2	GRUSELIG	A	N	1	S	A
118	1	2104	0	2	FANTASIE	S	P	1	N	P
119	3	1424	0	1	SATAN	S	N	2	B	R
120	1	3127	0	1	NOTFALL	S	N	1	N	P
121	2	1321	0	1	BLUTTAT	S	N	1	S	A
122	3	1451	0	2	FREUND	S	P	1	B	R
123	2	7426	0	2	ANOMAL	A	N	1	S	A
124	2	723	0	2	LIEBLOS	A	N	1	S	A
125	3	6279	0	1	MILITANT	A	N	2	B	R
126	2	3993	0	2	PANISCH	A	N	2	S	A
127	1	5917	0	1	TERROR	S	N	1	N	P
128	2	3774	0	1	LEBEN	S	P	1	S	A
129	1	1731	0	2	SILBERN	A	P	1	N	P
130	3	1445	0	1	PFIFFIG	A	P	2	B	R
131	2	1545	0	2	TOLL	A	P	1	S	A
132	3	2529	0	2	BOSHAFT	A	N	1	B	R
133	2	1460	0	2	PERVERS	A	N	1	S	A
134	1	2680	0	1	MONSTRUM	S	N	1	N	P
135	1	834	0	1	ILLEGAL	A	N	2	N	P
136	1	2187	0	2	ERHOLUNG	S	P	1	N	P
137	2	1263	0	2	ZART	A	P	2	S	A
138	2	1183	0	2	BODENLOS	A	N	2	S	A
139	3	1115	0	1	TOLERANT	A	P	2	B	R
140	2	3133	0	1	UNFALL	S	N	1	S	A
141	2	1324	0	2	HERZLOS	A	N	2	S	A
142	3	1556	0	2	NOTFALL	S	N	1	B	R
143	1	1774	0	1	KORRUPT	A	N	2	N	P
144	3	2115	0	2	HUMOR	S	P	1	B	R
145	1	1438	0	2	SCHLAU	A	P	2	N	P
146	1	882	0	1	TUMOR	S	N	2	N	P
147	3	3927	0	2	ZIELLOS	A	N	1	B	R
148	2	1992	0	1	NATUR	S	P	1	S	A
149	1	1373	0	2	HARMONIE	S	P	2	N	P
150	2	3310	0	1	TERROR	S	N	1	S	A
151	1	2456	0	2	PERFEKT	A	P	2	N	P
152	2	2020	0	1	WEISHEIT	S	P	1	S	A
153	2	755	0	2	REICH	A	P	1	S	A
154	3	4242	0	2	GEWALT	S	N	1	B	R
155	3	608	0	2	UNMENSCH	S	N	1	B	R
156	3	623	0	2	LEBEN	S	P	1	B	R
157	1	3654	0	2	ZUHAUSE	S	P	1	N	P
158	1	818	0	1	FURCHT	S	N	1	N	P
159	1	800	0	2	BEFREIUNG	S	P	1	N	P
160	2	1630	0	2	HEITER	A	P	1	S	A
161	2	1274	0	1	LEPRA	S	N	1	S	A
162	2	744	0	1	BESTIE	S	N	1	S	A
163	1	1872	0	2	FRIEDE	S	P	2	N	P
164	3	5645	0	2	GESUND	A	P	1	B	R
165	1	3519	0	1	GIFTGAS	S	N	2	N	P
166	1	793	0	2	SUPER	A	P	1	N	P
167	3	2231	0	1	GEWINN	S	P	2	B	R
168	2	1445	0	2	PERVERS	A	N	1	S	A
169	1	1561	0	2	TOPFIT	A	P	1	N	P
170	3	6388	0	1	STRAFE	S	N	2	B	R
171	3	4833	0	2	AKTIV	A	P	1	B	R
172	2	3281	0	1	FREIZEIT	S	P	2	S	A
173	1	1656	0	2	FREIHEIT	S	P	2	N	P
174	3	3891	0	2	GEFÜHL	S	P	1	B	R
175	1	3891	0	1	REVOLVER	S	N	2	N	P
176	3	1599	0	1	GRANATE	S	N	2	B	R
177	3	692	0	1	PFIFFIG	A	P	2	B	R
178	3	633	0	2	ATTENTAT	S	N	1	B	R
179	2	2166	0	2	LOYAL	A	P	2	S	A
180	1	2630	0	2	LUKRATIV	A	P	1	N	P
181	2	2084	0	1	FERIEN	S	P	2	S	A
182	1	1765	0	1	WEHRLOS	A	N	1	N	P
183	2	1590	0	2	PRIMA	A	P	1	S	A
184	2	3540	0	2	GRAUSAM	A	N	2	S	A
185	3	1223	0	1	BLUTTAT	S	N	2	B	R
186	1	4364	0	2	BUNT	A	P	1	N	P
187	3	3506	0	2	SONNIG	A	P	1	B	R
188	3	707	0	1	SILBERN	A	P	2	B	R
189	1	1240	0	2	MUTIG	A	P	1	N	P
190	3	1653	0	2	SKLAVE	S	N	1	B	R
191	1	1888	0	1	SADISMUS	S	N	1	N	P
192	1	1292	0	1	RASTLOS	A	N	2	N	P
193	2	1413	0	1	EROTIK	S	P	2	S	A
194	2	910	0	1	VATER	S	P	1	S	A
195	2	2270	0	1	STREIT	S	N	2	S	A
196	1	1388	0	1	UNFALL	S	N	1	N	P
197	1	753	0	1	VERWEINT	A	N	2	N	P
198	1	658	0	1	ZERLUMPT	A	N	2	N	P
199	3	1698	0	2	SPRITZIG	A	P	1	B	R
200	3	645	0	2	FREUDE	S	P	1	B	R
201	1	1416	0	1	TROSTLOS	A	N	2	N	P
202	1	1248	0	1	LABIL	A	N	1	N	P
203	2	1403	0	1	MASSAKER	S	N	1	S	A
204	1	1700	0	2	VERTRAUEN	S	P	1	N	P
205	2	1327	1	1	STARK	A	P	1	S	A
206	2	2758	0	1	TALENT	S	P	1	S	A
207	2	2256	0	2	ANOMAL	A	N	1	S	A
208	1	2594	0	2	KIRSCHE	S	P	2	N	P
209	3	2051	0	2	TODFEIND	S	N	1	B	R
210	1	2406	0	1	ELEND	A	N	2	N	P
211	1	1246	0	1	SATAN	S	N	2	N	P
212	3	1476	0	2	TOLL	A	P	1	B	R
213	2	1300	0	1	SCHLACHT	S	N	2	S	A
214	1	4545	0	2	WARM	A	P	2	N	P
215	2	1271	0	2	GRUSELIG	A	N	1	S	A
216	1	2315	0	2	BELIEBT	A	P	1	N	P
217	1	902	0	1	BRUTAL	A	N	1	N	P
218	2	2040	0	2	GUTARTIG	A	P	1	S	A
219	3	1743	0	1	FRÜHJAHR	S	P	2	B	R
220	1	1871	0	1	VIRUS	S	N	1	N	P
221	3	1569	0	2	GALGEN	S	N	1	B	R
222	1	3419	0	1	TOXISCH	A	N	2	N	P
223	1	4214	0	1	UNTREUE	S	N	1	N	P
224	2	2245	0	2	VERLOGEN	A	N	1	S	A
225	2	955	0	1	ABSTURZ	S	N	2	S	A
226	3	1433	0	2	UNFAIR	A	N	1	B	R
227	3	584	0	2	HENKER	S	N	1	B	R
228	2	3413	0	1	WISSEN	S	P	1	S	A
229	3	1995	0	2	LAUNISCH	A	N	1	B	R
230	2	1170	0	2	OPTIMAL	A	P	1	S	A
231	3	1802	0	2	SABOTEUR	S	N	1	B	R
232	3	657	0	2	PEINLICH	A	N	1	B	R
233	2	1529	0	2	KREATIV	A	P	1	S	A
234	3	1401	0	2	TRAURIG	A	N	1	B	R
235	1	1585	0	1	GEMEIN	A	N	2	N	P
236	3	2145	0	1	SOMMER	S	P	2	B	R
237	2	1424	0	1	KOLLAPS	S	N	2	S	A
238	3	2599	0	1	BOSHAFT	A	N	2	B	R
239	3	1700	1	1	ANMUTIG	A	P	1	B	R
240	2	5350	0	2	ZWECKLOS	A	N	1	S	A
241	2	3742	0	1	PANIK	S	N	1	S	A
242	3	2518	0	1	WEIBLICH	A	P	2	B	R
243	1	9038	0	2	STABIL	A	P	2	N	P
244	2	1641	0	2	LEBENDIG	A	P	2	S	A
245	1	5076	0	1	INFERNO	S	N	1	N	P
246	3	4166	0	1	NEIDISCH	A	N	2	B	R
247	1	1825	0	1	LIEBLOS	A	N	2	N	P
248	2	1444	0	1	TRENNUNG	S	N	1	S	A
249	3	2059	0	1	LUSTLOS	A	N	2	B	R
250	1	2269	0	2	FROH	A	P	2	N	P
251	2	5266	0	1	BLUME	S	P	2	S	A
252	3	4277	0	2	IDYLLE	S	P	1	B	R
253	1	2062	0	1	FOLTER	S	N	2	N	P
254	2	1171	0	2	TOLERANT	A	P	2	S	A
255	3	1323	0	1	TAPFER	A	P	2	B	R
256	1	3079	0	1	AGGRESSION	S	N	1	N	P
257	2	1279	0	2	PANISCH	A	N	1	S	A
258	1	2222	0	2	FRIEDEN	S	P	2	N	P
259	3	2835	1	1	MORDTAT	S	N	1	B	R
260	1	5855	0	2	FANTASIE	S	P	1	N	P
261	2	2458	0	1	UNRECHT	S	N	2	S	A
262	3	5014	0	2	WEISE	A	P	1	B	R
263	2	1728	0	1	MONSTRUM	S	N	2	S	A
264	2	842	0	1	RETTER	S	P	2	S	A
265	3	2280	0	2	BRILLANT	A	P	1	B	R
266	2	1237	0	1	ENERGIE	S	P	2	S	A
267	1	3393	0	2	FRAULICH	A	P	1	N	P
268	2	2648	0	1	BLÜTE	S	P	2	S	A
269	1	1331	0	2	KÜSTE	S	P	2	N	P
270	3	1996	0	1	GRATIS	A	P	2	B	R
271	2	1108	0	1	OPTIMIST	S	P	1	S	A
272	3	1557	0	1	HUMORLOS	A	N	2	B	R
273	2	2806	0	2	TREULOS	A	N	2	S	A
274	1	2562	0	1	ÜBERFALL	S	N	1	N	P
275	1	932	0	2	WERTVOLL	A	P	2	N	P
276	1	1029	0	1	STRAFTAT	S	N	2	N	P
277	2	2917	0	2	ILLEGAL	A	N	1	S	A
278	2	982	0	1	WAHRHEIT	S	P	1	S	A
279	3	2341	0	2	UNGESUND	A	N	1	B	R
280	2	1396	0	1	PEINIGER	S	N	2	S	A
281	1	2031	0	1	FOLTER	S	N	1	N	P
282	3	1429	0	1	GEFAHR	S	N	2	B	R
283	2	1612	0	2	SATT	A	P	2	S	A
284	1	1936	0	2	SAUBER	A	P	2	N	P
285	2	3700	0	1	GEWALT	S	N	2	S	A
286	1	4204	0	1	GRANATE	S	N	1	N	P
287	1	970	0	2	MUTIG	A	P	2	N	P
288	2	1483	0	2	NEIDISCH	A	N	2	S	A
289	3	1357	0	1	TOLERANZ	S	P	2	B	R
290	1	2318	0	1	PLEITE	A	N	2	N	P
291	3	2069	0	2	LAUNISCH	A	N	1	B	R
292	1	1700	0	2	URLAUB	S	P	1	N	P
293	1	1115	0	2	GENIAL	A	P	2	N	P
294	2	1200	0	2	HUMORLOS	A	N	2	S	A
295	2	1198	0	1	PSYCHOSE	S	N	1	S	A
296	3	4582	0	1	MORDTAT	S	N	2	B	R
297	3	820	0	2	ZUHAUSE	S	P	1	B	R
298	2	2314	0	2	ENTSETZT	A	N	2	S	A
299	3	2113	0	2	FRIEDE	S	P	1	B	R
300	2	2818	0	2	GRAUSAM	A	N	2	S	A
301	3	2960	0	2	FREIHEIT	S	P	1	B	R
302	3	793	0	2	TOXISCH	A	N	1	B	R
303	2	3192	0	2	ZART	A	P	1	S	A
304	3	1487	0	2	VITAL	A	P	1	B	R
305	1	1353	0	2	WARM	A	P	2	N	P
306	3	2162	0	1	HERZLOS	A	N	2	B	R
307	2	2260	0	2	SONNIG	A	P	2	S	A
308	3	1672	0	1	FURCHT	S	N	2	B	R
309	3	1628	0	2	PEINIGER	S	N	1	B	R
310	2	2635	0	1	PANIK	S	N	2	S	A
311	2	2093	0	1	JUBEL	S	P	1	S	A
312	3	777	0	2	KREATIV	A	P	1	B	R
313	1	2240	0	2	TOLL	A	P	1	N	P
314	2	2340	0	1	GEFÜHL	S	P	1	S	A
315	1	1485	0	2	MUTTER	S	P	1	N	P
316	3	3114	0	1	ZWECKLOS	A	N	2	B	R
317	3	1636	0	1	KIRSCHE	S	P	2	B	R
318	3	1048	0	2	ASOZIAL	A	N	1	B	R
319	2	1207	0	2	NETT	A	P	1	S	A
320	1	2268	0	1	PLANLOS	A	N	2	N	P
321	2	2511	0	2	GRATIS	A	P	2	S	A
322	1	5715	0	1	EINSAM	A	N	1	N	P
323	2	1882	0	2	OPTIMAL	A	P	2	S	A
324	2	829	0	1	OHRFEIGE	S	N	1	S	A
325	3	1213	0	2	BODENLOS	A	N	1	B	R
326	1	1323	0	2	SINNLICH	A	P	2	N	P
327	3	1434	0	1	KLARHEIT	S	P	2	B	R
328	3	753	0	1	VERLOGEN	A	N	2	B	R
329	1	3787	0	2	GRANDIOS	A	P	1	N	P
330	3	1286	0	1	TOPFIT	A	P	2	B	R
331	1	6665	0	1	TRENNUNG	S	N	1	N	P
332	1	2670	0	2	POSITIV	A	P	1	N	P
333	2	2224	0	1	SCHMERZ	S	N	1	S	A
334	2	2501	0	2	AKTIV	A	P	2	S	A
335	2	1089	0	2	REIZVOLL	A	P	1	S	A
336	1	1973	0	1	SEKTE	S	N	2	N	P
337	1	1074	0	2	LIEB	A	P	2	N	P
338	1	1081	0	1	FREUDLOS	A	N	1	N	P
339	3	1378	0	1	UNHEIL	S	N	2	B	R
340	3	881	0	2	FANTASIE	S	P	1	B	R
341	1	4836	0	2	EHRLICH	A	P	2	N	P
342	1	898	0	2	OPTIMIST	S	P	1	N	P
343	2	1548	0	2	HEILFROH	A	P	1	S	A
344	1	1550	0	2	BUNT	A	P	2	N	P
345	2	3343	0	1	PARTNER	S	P	1	S	A
346	2	686	0	1	RETTER	S	P	1	S	A
347	2	849	0	2	BANKROTT	A	N	1	S	A
348	1	1607	0	2	INSEL	S	P	1	N	P
349	3	5060	0	2	PARTY	S	P	1	B	R
350	1	1249	0	2	HARMONIE	S	P	1	N	P
351	3	1119	0	2	MACHTLOS	A	N	1	B	R
352	1	1629	0	1	LIEBLOS	A	N	1	N	P
353	2	1339	0	2	BOSHAFT	A	N	1	S	A
354	3	2223	0	2	NATUR	S	P	1	B	R
355	1	3938	0	1	LEBLOS	A	N	1	N	P
356	2	6920	0	2	LUKRATIV	A	P	1	S	A
357	3	1182	0	2	SPRITZIG	A	P	1	B	R
358	1	4146	0	2	TALENT	S	P	2	N	P
359	2	1861	0	2	UNFAIR	A	N	2	S	A
360	3	1271	0	1	ÜBERFALL	S	N	2	B	R
361	1	1659	0	2	WAHRHEIT	S	P	2	N	P
362	2	2425	0	2	ZIELLOS	A	N	1	S	A
363	1	1424	0	1	VERBOTEN	A	N	1	N	P
364	3	1666	0	2	FORTUNA	S	P	1	B	R
365	1	6080	1	2	DEKADENT	A	N	1	N	P
366	2	4463	1	2	KLUGHEIT	S	P	2	S	A
367	3	2396	0	1	WEISHEIT	S	P	2	B	R
368	2	4702	0	2	TREULOS	A	N	1	S	A
369	2	886	0	1	PARADIES	S	P	1	S	A
370	3	2431	0	2	SONNABEND	S	P	1	B	R
371	2	3616	0	1	ABENDROT	S	P	1	S	A
372	1	3196	0	1	ANOMAL	A	N	2	N	P
373	2	3089	0	2	PERVERS	A	N	1	S	A
374	1	1804	0	1	PANISCH	A	N	2	N	P
375	3	1517	0	1	SPONTAN	A	P	2	B	R
376	2	3823	0	1	SCHLACHT	S	N	2	S	A
377	3	1469	0	2	WERTVOLL	A	P	1	B	R
378	2	1696	0	2	GUTARTIG	A	P	1	S	A
379	1	1593	0	2	FROH	A	P	1	N	P
380	1	765	0	2	KÜSTE	S	P	1	N	P
381	1	931	0	1	VERLETZT	A	N	2	N	P
382	2	1484	0	2	RASTLOS	A	N	2	S	A
383	2	944	0	2	WEISE	A	P	1	S	A
384	3	1252	0	2	UNMENSCH	S	N	1	B	R
385	2	1719	0	1	VERRAT	S	N	2	S	A
386	2	743	0	1	GIFTGAS	S	N	1	S	A
387	3	1367	0	1	ASCHFAHL	A	N	2	B	R
388	1	5097	0	2	HOFFNUNG	S	P	1	N	P
389	3	1537	0	2	SEEKRANK	A	N	1	B	R
390	1	3834	0	2	STILVOLL	A	P	1	N	P
391	1	959	0	1	STREIT	S	N	2	N	P
392	3	1313	0	2	ZUKUNFT	S	P	1	B	R
393	2	2334	0	2	ILLEGAL	A	N	2	S	A
394	1	1479	0	2	HUMAN	A	P	1	N	P
395	2	1318	0	2	UNBEQUEM	A	N	1	S	A
396	1	1453	0	2	GESUND	A	P	1	N	P
397	2	1611	0	1	ATEMNOT	S	N	2	S	A
398	2	790	0	1	UNFALL	S	N	1	S	A
399	3	3994	0	1	BESTIE	S	N	2	B	R
400	3	836	0	2	VATER	S	P	1	B	R
401	3	638	0	1	HEILUNG	S	P	2	B	R
402	1	2800	0	1	KRANK	A	N	1	N	P
403	1	767	0	1	INFERNO	S	N	1	N	P
404	1	753	0	2	HIMMEL	S	P	2	N	P
405	2	3498	1	1	ELEND	A	N	1	S	A
406	2	710	0	1	MORDFALL	S	N	2	S	A
407	2	1103	0	2	STABIL	A	P	2	S	A
408	1	1317	0	1	KOLLAPS	S	N	2	N	P
409	3	1690	0	1	MILITANT	A	N	2	B	R
410	1	2107	0	2	BRILLANT	A	P	1	N	P
411	1	685	0	2	FREUDE	S	P	2	N	P
412	3	1914	0	2	HENKER	S	N	1	B	R
413	2	3054	0	1	MASSAGE	S	P	2	S	A
414	1	1173	0	2	PERFEKT	A	P	1	N	P
415	3	2314	0	1	SCHLECHT	A	N	2	B	R
416	3	948	1	1	TODFEIND	S	N	1	B	R
417	2	3606	0	1	INTRIGE	S	N	2	S	A
418	1	3332	0	2	EROTIK	S	P	2	N	P
419	3	2297	0	1	HEITER	A	P	2	B	R
420	1	1327	0	2	ERDBEERE	S	P	1	N	P
