trial	condition	rt	acc	resp	word	val	gra	col	l_targ	r_targ
1	3	2356	0	1	SOMMER	S	P	1	R	B
2	1	1617	0	1	KIRSCHE	S	P	2	P	N
3	2	2690	0	1	MACHTLOS	A	N	2	A	S
4	3	1020	0	2	TRAUMA	S	N	2	R	B
5	1	4496	0	2	TYRANN	S	N	1	P	N
6	2	1746	0	1	SPRITZIG	A	P	1	A	S
7	3	2018	0	1	PARADIES	S	P	1	R	B
8	1	3593	0	2	TRAURIG	A	N	2	P	N
9	2	1937	0	1	ZART	A	P	1	A	S
10	3	2720	0	2	FORTUNA	S	P	2	R	B
11	1	2529	0	2	NOTFALL	S	N	2	P	N
12	2	1850	0	1	PERVERS	A	N	1	A	S
13	1	2782	0	2	UNFALL	S	N	2	P	N
14	3	2560	0	2	GEMETZEL	S	N	2	R	B
15	1	3398	0	2	VIRUS	S	N	1	P	N
16	2	2765	0	1	TROSTLOS	A	N	2	A	S
17	3	2004	0	2	FERIEN	S	P	2	R	B
18	2	3276	0	1	STARK	A	P	1	A	S
19	2	1971	0	2	FRÜHJAHR	S	P	2	A	S
20	3	3315	0	1	ENERGIE	S	P	1	R	B
21	2	2191	0	2	GIFTGAS	S	N	1	A	S
22	1	2299	0	2	BOSHAFT	A	N	2	P	N
23	2	1345	0	1	SAUBER	A	P	2	A	S
24	1	2705	0	1	BELIEBT	A	P	2	P	N
25	3	1659	0	2	INSEL	S	P	2	R	B
26	2	1839	0	2	TRENNUNG	S	N	2	A	S
27	3	1730	0	2	LIEB	A	P	2	R	B
28	2	2812	0	1	SEEKRANK	A	N	2	A	S
29	1	2217	0	2	PEINIGER	S	N	2	P	N
30	1	1979	0	2	ZIELLOS	A	N	1	P	N
31	1	1162	0	1	FREUND	S	P	2	P	N
32	2	1642	0	2	WAHRHEIT	S	P	1	A	S
33	2	2894	0	2	BLUTTAT	S	N	1	A	S
34	3	2274	0	2	FREUDIG	A	P	2	R	B
35	2	3396	0	1	TREU	A	P	1	A	S
36	2	1283	0	2	ANGRIFF	S	N	1	A	S
37	3	3127	0	1	SATAN	S	N	1	R	B
38	1	4231	0	2	MILITANT	A	N	2	P	N
39	3	1789	0	2	HUMAN	A	P	2	R	B
40	1	2996	0	1	HEILFROH	A	P	1	P	N
41	1	2490	0	2	TUMOR	S	N	2	P	N
42	3	2181	0	1	PANISCH	A	N	1	R	B
43	2	1163	0	1	LOYAL	A	P	1	A	S
44	1	1874	0	1	ZUKUNFT	S	P	2	P	N
45	2	4365	0	1	ILLEGAL	A	N	1	A	S
46	1	2679	0	1	FRAULICH	A	P	2	P	N
47	2	3143	0	2	FRIEDE	S	P	1	A	S
48	2	1089	0	2	MASSAGE	S	P	2	A	S
49	3	1414	0	1	TALENT	S	P	1	R	B
50	3	2484	0	2	GENIAL	A	P	2	R	B
51	3	1999	0	1	KLARHEIT	S	P	1	R	B
52	1	3587	0	1	SATT	A	P	2	P	N
53	1	1795	0	1	PFIFFIG	A	P	1	P	N
54	1	1442	0	2	VERLETZT	A	N	2	P	N
55	2	4007	0	1	EINSAM	A	N	1	A	S
56	2	1098	0	1	REICH	A	P	1	A	S
57	2	1016	0	1	TRAGISCH	A	N	2	A	S
58	1	3637	0	2	ABSTURZ	S	N	1	P	N
59	3	1698	0	2	STABIL	A	P	2	R	B
60	1	1642	0	1	VERTRAUT	A	P	1	P	N
61	1	1185	0	2	GIERIG	A	N	1	P	N
62	3	2383	0	1	STRAND	S	P	1	R	B
63	2	1271	0	1	SINNVOLL	A	P	1	A	S
64	1	1378	0	2	KRANK	A	N	2	P	N
65	3	1931	0	1	TRIST	A	N	1	R	B
66	3	3531	0	2	KÜSTE	S	P	2	R	B
67	2	1972	0	2	KLUGHEIT	S	P	2	A	S
68	1	1538	0	1	HUMOR	S	P	2	P	N
69	3	5878	0	1	JUBEL	S	P	1	R	B
70	1	2231	0	2	FOLTER	S	N	1	P	N
71	1	2042	0	2	STREIT	S	N	2	P	N
72	3	1729	0	1	PARTY	S	P	1	R	B
73	2	2416	0	1	ZERLUMPT	A	N	2	A	S
74	1	1513	0	2	ZWECKLOS	A	N	2	P	N
75	2	2522	0	2	ERFÜLLUNG	S	P	1	A	S
76	1	2097	1	1	OHRFEIGE	S	N	1	P	N
77	1	1483	0	2	ATTENTAT	S	N	2	P	N
78	2	1865	0	1	GRANDIOS	A	P	1	A	S
79	3	1372	0	2	BODENLOS	A	N	2	R	B
80	1	1996	0	1	HEITER	A	P	1	P	N
81	3	1444	0	1	GEFÜHL	S	P	1	R	B
82	1	1903	0	1	HIMMEL	S	P	1	P	N
83	1	1482	0	2	MASSAKER	S	N	2	P	N
84	2	1606	0	1	TOLERANT	A	P	1	A	S
85	2	1095	0	2	GESCHENK	S	P	1	A	S
86	3	1639	0	1	HUMORLOS	A	N	1	R	B
87	3	1269	0	2	VERTRAUEN	S	P	2	R	B
88	2	1954	0	1	PEINLICH	A	N	1	A	S
89	3	2018	0	1	TODFEIND	S	N	1	R	B
90	2	1577	0	1	GRAUSAM	A	N	1	A	S
91	3	1353	1	2	KOLLAPS	S	N	1	R	B
92	3	4810	0	2	INFERNO	S	N	2	R	B
93	2	1452	0	2	UNTREUE	S	N	2	A	S
94	3	1898	0	1	ERFOLG	S	P	1	R	B
95	1	2133	0	1	AKTIV	A	P	2	P	N
96	3	1541	0	2	TAKTVOLL	A	P	2	R	B
97	2	2310	0	1	FROH	A	P	1	A	S
98	3	1649	0	1	LAUNISCH	A	N	1	R	B
99	3	1806	0	1	SUPER	A	P	1	R	B
100	2	1965	0	2	PARTNER	S	P	2	A	S
101	2	1004	0	1	KREATIV	A	P	2	A	S
102	3	3600	0	2	STRAFTAT	S	N	2	R	B
103	1	2705	0	1	URLAUB	S	P	1	P	N
104	2	3272	0	2	ERZFEIND	S	N	2	A	S
105	1	1827	0	1	FREUDE	S	P	2	P	N
106	3	2665	0	1	UNHEIL	S	N	1	R	B
107	3	1590	1	1	TOXISCH	A	N	2	R	B
108	3	1364	0	2	TOLERANZ	S	P	2	R	B
109	2	1750	0	2	ERDBEERE	S	P	2	A	S
110	1	4342	0	1	REIZVOLL	A	P	2	P	N
111	2	1372	1	2	ROBUST	A	P	1	A	S
112	1	4748	0	1	OPTIMAL	A	P	2	P	N
113	2	1380	0	1	LABIL	A	N	2	A	S
114	2	1331	0	1	KRAFTLOS	A	N	1	A	S
115	3	1703	0	1	BLUME	S	P	1	R	B
116	1	1599	0	2	SCHLACHT	S	N	1	P	N
117	3	3048	0	2	SEKTE	S	N	2	R	B
118	3	1128	0	2	NATUR	S	P	2	R	B
119	1	3085	0	1	MUTIG	A	P	1	P	N
120	3	1342	0	2	PANIK	S	N	2	R	B
121	1	2968	0	2	DROHUNG	S	N	1	P	N
122	1	1222	0	2	AGGRESSION	S	N	2	P	N
123	2	2132	0	1	TOLL	A	P	2	A	S
124	2	1575	0	1	PLEITE	A	N	2	A	S
125	2	1038	0	2	UNMENSCH	S	N	2	A	S
126	1	1667	0	1	PRIMA	A	P	1	P	N
127	1	1065	0	2	SCHMERZ	S	N	2	P	N
128	1	1884	0	2	LEPRA	S	N	2	P	N
129	3	2565	0	2	BEGABUNG	S	P	2	R	B
130	3	871	0	1	WERTVOLL	A	P	1	R	B
131	1	1753	0	2	HILFLOS	A	N	1	P	N
132	1	3923	0	2	SKLAVE	S	N	2	P	N
133	2	3996	0	1	SINNLICH	A	P	2	A	S
134	1	4232	0	2	ASCHFAHL	A	N	1	P	N
135	2	5060	0	1	BEQUEM	A	P	2	A	S
136	2	3794	0	1	HERZLOS	A	N	2	A	S
137	2	864	0	2	WISSEN	S	P	2	A	S
138	1	1417	0	2	ALPTRAUM	S	N	1	P	N
139	3	2378	0	2	LEICHNAM	S	N	2	R	B
140	1	1978	0	1	WEISE	A	P	2	P	N
141	2	3487	0	2	MORDTAT	S	N	2	A	S
142	3	1556	0	2	LOYAL	A	P	2	R	B
143	1	1481	0	2	TERROR	S	N	1	P	N
144	3	1124	0	1	TRENNUNG	S	N	1	R	B
145	1	2494	0	2	FREUDLOS	A	N	1	P	N
146	1	1345	0	2	DEKADENT	A	N	1	P	N
147	3	1650	0	2	WEISHEIT	S	P	2	R	B
148	2	1241	0	1	SPONTAN	A	P	2	A	S
149	1	1526	0	1	PFIFFIG	A	P	2	P	N
150	2	2960	1	2	ELEND	A	N	2	A	S
151	1	1625	1	2	ANMUTIG	A	P	1	P	N
152	2	3597	0	2	VERTRAUEN	S	P	1	A	S
153	2	1323	0	2	UNRECHT	S	N	1	A	S
154	3	1911	0	1	VIRUS	S	N	1	R	B
155	3	1736	0	2	SCHLACHT	S	N	2	R	B
156	3	1305	0	1	PARADIES	S	P	1	R	B
157	1	2949	0	1	HUMOR	S	P	1	P	N
158	1	1469	0	1	FREUDE	S	P	2	P	N
159	1	1247	0	1	HOFFNUNG	S	P	2	P	N
160	2	2109	0	2	SCHMERZ	S	N	1	A	S
161	2	1015	0	1	HEITER	A	P	1	A	S
162	2	1063	0	2	ABENDROT	S	P	2	A	S
163	1	1874	0	2	VERRAT	S	N	1	P	N
164	3	1548	0	2	SOMMER	S	P	2	R	B
165	1	2981	0	2	GEFAHR	S	N	2	P	N
166	1	1397	0	2	VERLETZT	A	N	2	P	N
167	3	1949	0	2	MUTIG	A	P	2	R	B
168	2	1411	0	1	NETT	A	P	2	A	S
169	1	2704	0	2	OHRFEIGE	S	N	1	P	N
170	3	4037	0	1	FREUND	S	P	1	R	B
171	3	1575	0	2	SKLAVE	S	N	2	R	B
172	2	2464	0	1	KORRUPT	A	N	1	A	S
173	1	1762	0	2	TUMOR	S	N	1	P	N
174	3	1517	0	1	ÜBERFALL	S	N	1	R	B
175	1	1557	0	2	HILFLOS	A	N	2	P	N
176	1	1056	0	1	TOLL	A	P	2	P	N
177	3	1532	0	1	MUNTER	A	P	1	R	B
178	2	1372	0	2	FREIZEIT	S	P	2	A	S
179	1	1812	0	2	TRAUMA	S	N	2	P	N
180	2	5948	1	2	PLEITE	A	N	2	A	S
181	1	4066	0	1	VITAL	A	P	1	P	N
182	1	1019	0	2	BLUTIG	A	N	2	P	N
183	2	3243	0	1	STABIL	A	P	2	A	S
184	3	1605	0	2	ASOZIAL	A	N	2	R	B
185	1	2519	0	2	TYRANN	S	N	2	P	N
186	3	3168	0	2	FORTUNA	S	P	2	R	B
187	1	5054	0	2	GRANATE	S	N	1	P	N
188	1	1016	0	1	FREUDIG	A	P	1	P	N
189	2	2350	0	1	TOLERANT	A	P	1	A	S
190	2	1009	0	2	INSEL	S	P	1	A	S
191	3	1543	0	1	PSYCHOSE	S	N	1	R	B
192	3	5695	0	2	HIMMEL	S	P	2	R	B
193	2	1801	0	1	SCHLAU	A	P	1	A	S
194	3	5273	0	1	TRAGISCH	A	N	1	R	B
195	2	1456	0	1	REICH	A	P	1	A	S
196	3	1932	0	1	GESCHENK	S	P	1	R	B
197	3	1096	0	1	NEIDISCH	A	N	1	R	B
198	2	1308	0	2	KIRSCHE	S	P	2	A	S
199	3	1715	0	1	MONSTRUM	S	N	1	R	B
200	1	2037	0	2	DROHUNG	S	N	1	P	N
201	3	2893	0	1	TOPFIT	A	P	1	R	B
202	2	1917	0	1	SUPER	A	P	1	A	S
203	3	1393	0	2	SATT	A	P	2	R	B
204	3	2040	0	1	STRAFE	S	N	1	R	B
205	2	2547	0	1	MILITANT	A	N	2	A	S
206	2	1214	0	1	SAUBER	A	P	2	A	S
207	3	1553	0	2	GRAUSAM	A	N	2	R	B
208	1	8905	0	2	BRUTAL	A	N	1	P	N
209	2	1769	0	2	OPTIMIST	S	P	1	A	S
210	1	1376	0	1	ENERGIE	S	P	2	P	N
211	3	1945	0	1	EROTIK	S	P	1	R	B
212	3	1588	0	2	TALENT	S	P	2	R	B
213	3	1315	0	2	FRAULICH	A	P	2	R	B
214	2	2157	0	2	MUSIK	S	P	1	A	S
215	1	1747	0	1	FROH	A	P	1	P	N
216	2	1660	0	2	TOLERANZ	S	P	2	A	S
217	1	1312	0	1	URLAUB	S	P	2	P	N
218	2	1530	0	2	ERFOLG	S	P	2	A	S
219	2	1054	0	2	HARMONIE	S	P	2	A	S
220	3	1346	0	1	VATER	S	P	1	R	B
221	1	1803	0	1	TREU	A	P	1	P	N
222	3	3841	0	2	GEFÜHL	S	P	2	R	B
223	3	1212	0	1	ZUKUNFT	S	P	1	R	B
224	1	1596	0	2	PEINLICH	A	N	2	P	N
225	3	1804	0	1	EHRLICH	A	P	1	R	B
226	1	1280	0	2	NOTFALL	S	N	2	P	N
227	1	1268	0	2	FOLTER	S	N	2	P	N
228	2	2809	0	2	SABOTEUR	S	N	1	A	S
229	2	1471	0	2	PANIK	S	N	1	A	S
230	2	956	0	2	MASSAGE	S	P	2	A	S
231	1	2778	0	2	PEINIGER	S	N	1	P	N
232	1	1235	0	1	STARK	A	P	2	P	N
233	1	911	0	2	KRANK	A	N	1	P	N
234	3	3060	0	2	MORDFALL	S	N	2	R	B
235	3	816	0	1	BLÜTE	S	P	1	R	B
236	1	1647	0	2	SCHLECHT	A	N	1	P	N
237	1	5866	0	2	ZIELLOS	A	N	1	P	N
238	2	1652	0	2	HEILUNG	S	P	2	A	S
239	1	1609	0	2	INTRIGE	S	N	1	P	N
240	2	5191	0	2	KOLLAPS	S	N	2	A	S
241	2	1270	0	2	SADISMUS	S	N	1	A	S
242	2	912	0	1	LUSTLOS	A	N	1	A	S
243	1	1347	0	1	MUTTER	S	P	2	P	N
244	3	3354	0	1	ANOMAL	A	N	1	R	B
245	1	5533	0	2	TOXISCH	A	N	1	P	N
246	3	1309	0	2	GENIAL	A	P	2	R	B
247	1	1253	0	2	ATTENTAT	S	N	1	P	N
248	2	3529	0	2	GALGEN	S	N	2	A	S
249	3	2139	0	1	GEISEL	S	N	1	R	B
250	1	1156	0	1	WEISE	A	P	1	P	N
251	2	2453	0	1	LIEB	A	P	1	A	S
252	3	1368	0	2	ERDBEERE	S	P	2	R	B
253	1	2680	0	1	FANTASIE	S	P	2	P	N
254	2	3132	0	1	PRIMA	A	P	2	A	S
255	3	1398	0	2	STRAND	S	P	2	R	B
256	1	2716	0	1	RETTER	S	P	2	P	N
257	2	1645	0	2	SATAN	S	N	1	A	S
258	1	2955	0	1	GUTARTIG	A	P	1	P	N
259	3	1507	0	1	UNFAIR	A	N	1	R	B
260	1	2517	0	1	PARTNER	S	P	2	P	N
261	2	6678	0	1	KREATIV	A	P	1	A	S
262	3	3542	0	2	FRIEDE	S	P	2	R	B
263	2	3486	0	1	PERVERS	A	N	1	A	S
264	2	1009	0	1	MACHTLOS	A	N	2	A	S
265	3	1523	0	1	UNGESUND	A	N	1	R	B
266	2	2122	0	1	ZWECKLOS	A	N	1	A	S
267	1	1351	0	1	KLARHEIT	S	P	2	P	N
268	2	1901	0	2	IDYLLE	S	P	1	A	S
269	1	1570	0	1	FRÜHJAHR	S	P	1	P	N
270	3	1431	0	1	PARTY	S	P	1	R	B
271	2	2246	0	1	GRUSELIG	A	N	2	A	S
272	3	1714	0	1	GRATIS	A	P	1	R	B
273	2	2706	1	2	HERZLOS	A	N	1	A	S
274	1	2688	0	2	VERBOTEN	A	N	1	P	N
275	1	1607	0	1	WISSEN	S	P	2	P	N
276	1	1838	0	1	GRANDIOS	A	P	1	P	N
277	2	3717	1	2	ASCHFAHL	A	N	2	A	S
278	2	1260	0	1	TROSTLOS	A	N	2	A	S
279	3	2082	0	2	HUMORLOS	A	N	2	R	B
280	2	2806	0	2	BLUME	S	P	2	A	S
281	3	1888	0	1	SABOTEUR	S	N	1	R	B
282	3	1243	0	2	ZUHAUSE	S	P	2	R	B
283	3	993	0	1	KIRSCHE	S	P	1	R	B
284	2	1883	0	2	PANIK	S	N	2	A	S
285	1	1412	0	1	BEGABUNG	S	P	2	P	N
286	2	1948	0	2	LEPRA	S	N	2	A	S
287	1	1844	0	1	VERTRAUT	A	P	2	P	N
288	2	2426	0	2	ABSTURZ	S	N	1	A	S
289	2	968	0	1	BRILLANT	A	P	2	A	S
290	3	1657	0	1	ZERLUMPT	A	N	1	R	B
291	1	1532	0	1	FRIEDEN	S	P	1	P	N
292	3	2118	0	2	TREULOS	A	N	2	R	B
293	3	1984	0	1	TRAGISCH	A	N	1	R	B
294	1	1413	0	2	TYRANN	S	N	1	P	N
295	3	1788	0	1	NATUR	S	P	1	R	B
296	1	1465	0	2	TRIST	A	N	2	P	N
297	1	1632	0	2	KOLLAPS	S	N	2	P	N
298	2	1732	0	2	BLUTTAT	S	N	1	A	S
299	2	1180	0	1	SINNLICH	A	P	1	A	S
300	2	902	0	1	KRAFTLOS	A	N	1	A	S
301	1	2561	0	1	HARMONIE	S	P	2	P	N
302	1	1038	0	2	STREIT	S	N	2	P	N
303	1	819	0	1	MUTTER	S	P	1	P	N
304	3	2283	0	1	SCHLECHT	A	N	1	R	B
305	3	3743	0	1	LUKRATIV	A	P	1	R	B
306	1	1992	0	1	WEIBLICH	A	P	2	P	N
307	1	1116	0	1	FROH	A	P	1	P	N
308	2	1345	0	1	ILLEGAL	A	N	1	A	S
309	1	2745	0	1	SINNVOLL	A	P	1	P	N
310	2	3091	0	1	FREUDIG	A	P	1	A	S
311	2	1204	0	1	VERBOTEN	A	N	1	A	S
312	2	1026	0	2	BLÜTE	S	P	2	A	S
313	1	1778	0	2	INTRIGE	S	N	1	P	N
314	3	1634	0	2	STRAND	S	P	2	R	B
315	1	1671	0	2	ÜBERFALL	S	N	1	P	N
316	2	2057	0	1	UNBEQUEM	A	N	1	A	S
317	3	1677	0	2	SEEKRANK	A	N	2	R	B
318	1	1731	0	2	BRUTAL	A	N	1	P	N
319	3	2154	0	1	RETTER	S	P	1	R	B
320	1	2434	0	2	PSYCHOSE	S	N	1	P	N
321	1	1920	0	2	ZWECKLOS	A	N	2	P	N
322	3	2440	0	2	STABIL	A	P	2	R	B
323	2	5661	0	1	HUMORLOS	A	N	2	A	S
324	1	2882	0	2	SKLAVE	S	N	2	P	N
325	2	2660	0	2	UNTREUE	S	N	1	A	S
326	1	1160	0	1	HOFFNUNG	S	P	1	P	N
327	2	1618	0	1	MUNTER	A	P	1	A	S
328	2	1000	0	1	ANOMAL	A	N	2	A	S
329	3	1615	0	1	FRÜHJAHR	S	P	1	R	B
330	3	2012	0	2	REVOLVER	S	N	2	R	B
331	3	928	0	1	DROHUNG	S	N	1	R	B
332	1	1862	0	1	FORTUNA	S	P	1	P	N
333	1	3863	0	1	ERDBEERE	S	P	2	P	N
334	1	2002	0	2	GREUEL	S	N	2	P	N
335	2	1441	0	1	ZART	A	P	1	A	S
336	2	1150	0	1	GUTARTIG	A	P	2	A	S
337	2	999	0	1	GRANDIOS	A	P	1	A	S
338	1	1134	0	1	WEISHEIT	S	P	2	P	N
339	3	3447	0	1	VERTRAUEN	S	P	1	R	B
340	1	2605	0	2	HERZLOS	A	N	1	P	N
341	1	1010	0	1	KLUGHEIT	S	P	2	P	N
342	3	2337	0	1	GRAUSAM	A	N	1	R	B
343	2	1792	0	1	SATT	A	P	2	A	S
344	1	1459	0	2	ALPTRAUM	S	N	2	P	N
345	3	1628	0	2	LABIL	A	N	2	R	B
346	3	1236	0	2	HEITER	A	P	2	R	B
347	2	2857	1	1	FREUDE	S	P	1	A	S
348	1	2227	0	2	FREUDLOS	A	N	1	P	N
349	3	3233	0	1	HIMMEL	S	P	1	R	B
350	1	1437	0	1	SONNIG	A	P	1	P	N
351	1	1006	0	2	SCHMERZ	S	N	2	P	N
352	3	1634	0	1	NEIDISCH	A	N	1	R	B
353	2	2584	0	1	MILITANT	A	N	2	A	S
354	1	2897	0	2	BANKROTT	A	N	1	P	N
355	2	1119	0	2	GEFÜHL	S	P	2	A	S
356	1	1818	0	2	IRRSINN	S	N	2	P	N
357	1	1464	0	2	TOXISCH	A	N	2	P	N
358	2	3019	0	1	STILVOLL	A	P	1	A	S
359	3	2898	0	2	AGGRESSION	S	N	2	R	B
360	1	2234	0	2	LUSTLOS	A	N	1	P	N
361	3	1519	0	1	EINSAM	A	N	1	R	B
362	1	2332	0	1	SUPER	A	P	2	P	N
363	1	1477	0	2	GRUSELIG	A	N	1	P	N
364	2	1985	0	1	PERFEKT	A	P	1	A	S
365	2	2742	0	2	ATTENTAT	S	N	2	A	S
366	3	4054	0	2	AKTIV	A	P	2	R	B
367	3	1938	0	1	VATER	S	P	1	R	B
368	2	2034	0	2	FOLTER	S	N	1	A	S
369	3	1839	0	2	STRAFBAR	A	N	2	R	B
370	2	1918	0	2	GEFAHR	S	N	2	A	S
371	3	2136	0	1	ERFÜLLUNG	S	P	1	R	B
372	3	1336	0	2	ABENDROT	S	P	2	R	B
373	2	4377	0	2	GRANATE	S	N	2	A	S
374	3	2015	0	2	KORRUPT	A	N	2	R	B
375	1	2184	0	2	ASCHFAHL	A	N	1	P	N
376	3	5723	0	1	HALBTOT	A	N	1	R	B
377	2	2771	0	2	HENKER	S	N	1	A	S
378	3	1396	0	2	TREU	A	P	2	R	B
379	3	3130	0	2	KLARHEIT	S	P	2	R	B
380	2	1859	0	2	PRACHT	S	P	2	A	S
381	2	1287	0	1	HUMAN	A	P	2	A	S
382	3	1354	0	1	BODENLOS	A	N	1	R	B
383	1	1475	0	1	FANTASIE	S	P	1	P	N
384	2	3711	0	1	TRAURIG	A	N	2	A	S
385	1	1176	0	1	LIEB	A	P	2	P	N
386	3	1211	0	2	MUTIG	A	P	2	R	B
387	1	1834	0	2	VERWEINT	A	N	2	P	N
388	2	1972	0	1	VERLOGEN	A	N	2	A	S
389	3	1679	0	2	PEINIGER	S	N	2	R	B
390	1	3803	0	2	LEBLOS	A	N	2	P	N
391	2	1711	0	2	GEISEL	S	N	1	A	S
392	3	1881	0	2	FURCHT	S	N	2	R	B
393	1	1390	0	1	BUNT	A	P	1	P	N
394	2	4107	0	2	SCHLACHT	S	N	1	A	S
395	3	1676	0	1	RASTLOS	A	N	1	R	B
396	1	1523	0	2	WEHRLOS	A	N	2	P	N
397	2	1938	0	2	LEICHNAM	S	N	1	A	S
398	1	1788	0	2	PANISCH	A	N	2	P	N
399	3	1284	0	2	MORDFALL	S	N	2	R	B
400	1	4240	0	2	TRAUMA	S	N	1	P	N
401	2	2450	0	2	BLUME	S	P	2	A	S
402	3	2342	0	2	HEILFROH	A	P	2	R	B
403	2	2393	0	1	BELIEBT	A	P	1	A	S
404	2	789	0	1	ZIELLOS	A	N	2	A	S
405	3	3414	0	2	GEMETZEL	S	N	2	R	B
406	2	2284	0	2	URLAUB	S	P	2	A	S
407	1	2956	0	2	TODFEIND	S	N	1	P	N
408	2	2711	0	2	STRAFE	S	N	2	A	S
409	1	1086	0	1	MUSIK	S	P	1	P	N
410	3	3106	0	1	ERFOLG	S	P	1	R	B
411	2	1262	0	1	BEQUEM	A	P	1	A	S
412	3	1760	0	2	TRENNUNG	S	N	2	R	B
413	2	3250	0	2	GEWINN	S	P	1	A	S
414	1	1959	1	1	ANGRIFF	S	N	1	P	N
415	1	1335	0	2	GEWALT	S	N	1	P	N
416	1	1633	0	1	TALENT	S	P	2	P	N
417	2	1611	0	1	SCHLAU	A	P	1	A	S
418	2	1044	0	1	KRANK	A	N	1	A	S
419	3	2240	0	2	DEKADENT	A	N	2	R	B
420	2	2684	0	1	PERVERS	A	N	2	A	S
