response	response_time	trial_ISI	trial_shape
None	0	1000	red_triangle
None	0	1500	blue_triangle
space	384	1500	red_square
None	0	1000	green_square
None	0	1500	red_circle
space	258	1500	red_square
None	0	2500	yellow_triangle
space	429	2000	red_square
space	381	2000	red_square
space	292	1500	red_circle
None	0	2000	blue_circle
None	0	1500	red_circle
space	319	1500	green_circle
None	0	2500	blue_star
None	0	1000	red_star
None	0	2000	yellow_square
space	281	2500	red_square
None	0	2500	red_circle
space	379	2500	red_square
None	0	1000	red_triangle
None	0	1500	red_star
None	0	2500	red_circle
None	0	1500	yellow_square
None	0	2000	green_square
None	0	1500	yellow_square
None	0	2000	yellow_triangle
space	462	2500	red_square
None	0	1000	blue_square
None	0	1000	green_star
space	323	2000	red_square
None	0	1000	green_square
None	0	2000	yellow_square
None	0	1000	yellow_star
None	0	2500	blue_triangle
space	450	1000	red_square
None	0	2000	green_circle
None	0	2000	red_triangle
None	0	2500	green_square
None	0	2500	blue_square
space	428	1500	red_square
None	0	2000	blue_triangle
space	369	2500	red_square
space	339	2500	red_square
None	0	2500	green_star
space	291	1500	yellow_triangle
space	436	2000	red_square
None	0	1500	blue_triangle
None	0	1500	red_triangle
None	0	2000	blue_square
space	246	2500	red_square
None	0	2500	yellow_triangle
space	362	1500	red_square
space	295	1500	red_square
space	245	2000	green_circle
None	0	1500	blue_triangle
None	0	1000	yellow_triangle
None	0	2500	yellow_triangle
None	0	1500	red_star
None	0	2000	red_circle
None	0	2500	green_triangle
space	362	2000	red_square
space	449	2500	red_square
space	319	1500	red_square
None	0	1000	green_star
None	0	1000	green_square
None	0	2000	blue_triangle
None	0	2000	green_circle
None	0	1500	red_star
space	296	2500	red_square
None	0	2500	red_star
None	0	1500	green_triangle
None	0	2500	blue_star
None	0	2000	blue_circle
space	225	2500	blue_square
space	408	2000	red_square
None	0	2000	yellow_triangle
None	0	2000	blue_square
None	0	2500	red_circle
space	319	1000	red_square
space	271	2500	blue_square
space	351	2500	red_square
None	0	1500	blue_square
space	324	2000	red_square
None	0	2500	red_triangle
space	385	1000	red_square
None	0	1500	red_circle
None	0	2500	red_triangle
space	295	2500	red_square
None	0	1500	green_square
None	0	1000	yellow_circle
None	0	2000	yellow_circle
None	0	1500	red_triangle
None	0	1500	blue_square
None	0	2500	blue_star
space	354	2000	red_square
None	0	2500	green_star
None	0	1500	blue_square
space	384	2500	red_square
space	286	1500	red_square
None	0	1500	red_star
None	0	1000	red_triangle
space	333	1500	red_square
None	0	2500	red_star
None	0	1000	green_square
None	0	2500	green_star
None	0	1000	green_triangle
None	0	1500	red_star
None	0	1000	green_square
None	0	1500	green_triangle
None	0	1000	red_circle
None	0	2000	yellow_circle
None	0	2500	blue_square
None	0	2500	yellow_circle
space	363	2000	red_square
None	0	1500	yellow_square
None	0	2000	yellow_square
None	0	2500	yellow_square
None	0	1500	blue_triangle
None	0	2500	yellow_star
None	0	1500	blue_triangle
None	0	2500	yellow_star
space	385	2500	red_square
space	263	2000	red_square
space	295	1500	red_triangle
None	0	2000	red_triangle
None	0	1000	yellow_triangle
None	0	1500	green_circle
space	396	2500	red_square
space	306	2000	red_square
space	409	1000	red_square
space	528	1000	red_square
None	0	2000	blue_star
None	0	2000	yellow_circle
space	335	2000	red_square
None	0	1000	blue_circle
None	0	2000	blue_star
None	0	1500	blue_circle
space	295	1500	red_square
space	260	2000	green_circle
None	0	2000	red_star
None	0	2500	green_triangle
space	361	1000	red_square
space	376	1000	red_square
space	279	2500	red_square
None	0	1500	yellow_square
None	0	2500	yellow_star
space	308	1000	red_square
None	0	2500	red_triangle
None	0	2500	yellow_star
space	287	1500	red_square
None	0	2000	blue_star
None	0	1500	green_star
None	0	2000	red_circle
None	0	1000	yellow_square
None	0	2500	red_star
None	0	2500	green_star
space	328	2000	red_square
None	0	1500	blue_triangle
space	309	1500	red_square
space	307	2000	red_triangle
None	0	1000	yellow_circle
space	369	1500	red_square
None	0	1000	yellow_triangle
space	287	1500	red_square
space	291	2000	red_circle
space	371	1500	red_square
None	0	1500	blue_square
space	306	1000	red_square
space	385	2500	red_square
space	323	1500	red_square
None	0	1000	green_square
None	0	2000	blue_circle
space	319	1000	red_circle
space	446	1000	red_square
space	286	2000	red_star
None	0	2000	red_triangle
None	0	2000	blue_star
None	0	2000	blue_square
space	300	1500	red_square
None	0	1500	blue_square
None	0	1000	green_star
None	0	1000	red_star
None	0	1500	blue_square
None	0	1000	green_triangle
None	0	1500	blue_square
None	0	1500	blue_star
None	0	1000	yellow_circle
None	0	1500	red_circle
None	0	1000	yellow_square
space	348	1000	red_square
space	236	2000	red_triangle
space	379	1000	red_square
space	315	2000	red_square
None	0	1000	green_circle
None	0	1500	red_triangle
None	0	1000	green_star
None	0	2500	yellow_square
space	331	1000	red_square
None	0	1000	yellow_square
space	402	2000	red_square
space	306	2500	green_square
None	0	2500	yellow_triangle
None	0	1000	red_star
None	0	2500	green_circle
space	274	1000	yellow_square
None	0	1000	yellow_star
None	0	2000	yellow_star
None	0	2500	green_square
space	374	2000	red_circle
None	0	2000	blue_star
None	0	2500	blue_square
None	0	2500	red_triangle
space	332	1000	red_square
space	248	1500	red_square
None	0	1000	yellow_star
None	0	1500	blue_star
space	306	2000	red_square
None	0	2500	yellow_square
space	296	2000	red_square
space	311	2500	red_square
space	397	1000	red_square
None	0	1000	yellow_square
None	0	1500	green_square
space	293	2500	red_square
space	283	1000	blue_triangle
None	0	1500	blue_star
space	351	2500	red_square
None	0	1000	green_circle
None	0	1500	red_star
None	0	2500	yellow_square
None	0	2500	blue_circle
None	0	2500	yellow_circle
None	0	1000	blue_star
None	0	2000	green_square
space	321	1000	red_square
space	257	1000	red_circle
None	0	2500	green_triangle
space	338	2000	red_square
None	0	1000	blue_square
None	0	1500	yellow_star
space	327	2000	red_square
space	294	2500	red_square
space	327	1000	red_square
space	319	1500	red_square
None	0	2000	green_square
None	0	1500	green_square
None	0	2000	yellow_circle
space	413	1500	red_square
None	0	2500	blue_circle
space	292	2500	red_square
space	241	2500	red_square
space	271	1500	blue_circle
None	0	2000	blue_circle
None	0	1000	yellow_star
space	324	2500	red_circle
space	481	2500	red_square
space	295	1500	red_square
space	313	1000	red_square
space	272	2000	red_square
space	336	1000	red_square
None	0	2000	blue_star
None	0	1000	blue_circle
None	0	2500	blue_circle
space	340	2500	red_square
space	281	1000	red_circle
None	0	2500	blue_circle
None	0	2000	green_square
None	0	1000	yellow_triangle
None	0	1500	red_triangle
None	0	1500	red_triangle
None	0	2000	green_triangle
None	0	1500	red_circle
space	333	2000	red_square
None	0	2500	green_star
None	0	1000	green_triangle
space	413	2000	red_square
space	261	1000	red_square
None	0	2500	green_triangle
space	274	2000	red_square
None	0	2500	yellow_triangle
space	279	1000	red_square
space	350	2000	red_square
space	294	1500	red_square
space	271	1000	yellow_square
None	0	1500	yellow_circle
None	0	2500	blue_triangle
None	0	2000	green_circle
None	0	1500	green_triangle
None	0	1000	green_circle
None	0	2000	green_circle
None	0	1000	red_star
None	0	2500	red_star
None	0	1000	yellow_square
None	0	1000	yellow_circle
space	310	2000	red_square
None	0	1000	red_star
None	0	1000	blue_triangle
None	0	2000	blue_triangle
None	0	1500	yellow_square
None	0	1500	red_circle
space	387	1000	red_square
None	0	1000	yellow_star
None	0	2000	yellow_star
space	305	1500	red_square
space	278	2000	red_square
None	0	2000	red_star
space	262	1500	red_square
space	255	1500	red_star
None	0	1000	green_triangle
None	0	1500	green_circle
None	0	2500	yellow_circle
None	0	1000	green_triangle
None	0	2000	blue_square
None	0	2500	blue_square
None	0	2000	green_star
None	0	2000	green_square
None	0	2000	green_square
space	318	1500	red_square
space	324	1000	red_square
None	0	2500	green_star
