response	response_time	trial_ISI	trial_shape
None	0	1500	green_triangle
space	452	2000	red_square
space	476	1000	red_square
None	0	1000	red_star
None	0	2500	blue_circle
space	420	1000	red_square
None	0	2500	red_triangle
space	525	1000	red_square
None	0	1500	green_square
None	0	2500	green_circle
None	0	2000	red_circle
space	446	1000	red_square
space	573	2000	red_square
None	0	1500	red_star
None	0	2500	blue_triangle
None	0	1000	yellow_star
None	0	2500	yellow_square
space	373	1500	red_square
None	0	2000	blue_star
space	406	2500	red_square
None	0	1500	yellow_star
None	0	1500	green_square
None	0	2500	green_triangle
None	0	1500	green_square
space	458	2500	red_square
space	387	2500	red_square
None	0	2000	yellow_circle
None	0	2000	blue_square
None	0	2000	blue_circle
None	0	2500	green_square
space	401	2000	red_square
None	0	1500	yellow_triangle
None	0	1000	blue_square
space	369	2000	red_square
space	433	2500	red_square
None	0	1500	yellow_circle
None	0	1500	yellow_circle
space	413	1000	red_square
None	0	2500	red_triangle
space	398	1000	red_square
None	0	1500	blue_star
None	0	2500	green_square
None	0	1500	green_star
None	0	1000	red_star
space	409	2500	red_square
None	0	2000	blue_triangle
space	402	1500	red_square
None	0	1500	blue_square
None	0	2000	green_triangle
None	0	1000	red_triangle
None	0	1500	green_triangle
None	0	1500	yellow_circle
None	0	2500	red_circle
space	395	1000	red_square
None	0	1000	green_star
None	0	2000	yellow_triangle
None	0	1000	red_circle
space	497	2500	red_square
None	0	2000	green_circle
None	0	1500	yellow_square
None	0	1000	red_circle
None	0	1000	yellow_square
None	0	2000	blue_circle
space	366	2500	red_square
None	0	2000	yellow_star
space	323	2000	red_square
None	0	1500	red_circle
None	0	2000	yellow_star
None	0	1000	green_square
space	387	1500	red_square
None	0	2000	blue_star
None	0	1000	yellow_triangle
None	0	1500	green_circle
None	0	2500	red_triangle
None	0	2500	yellow_square
space	367	2500	red_square
None	0	1000	red_star
None	0	1000	red_star
None	0	2000	green_star
None	0	1500	green_circle
None	0	1000	red_circle
None	0	1000	blue_square
None	0	2000	blue_square
None	0	1000	green_star
space	506	1500	red_square
None	0	1000	yellow_square
None	0	2500	yellow_square
space	380	1000	red_square
None	0	1500	green_square
None	0	1000	red_circle
space	428	1500	red_square
None	0	2500	red_triangle
None	0	1000	yellow_circle
None	0	1500	blue_triangle
None	0	1000	blue_star
space	323	1500	red_square
None	0	2500	red_circle
None	0	1500	green_triangle
space	403	1000	red_square
space	618	2000	red_square
space	410	1500	red_square
space	308	1500	red_square
None	0	2000	blue_circle
None	0	2000	red_circle
None	0	1500	blue_square
None	0	1000	green_triangle
None	0	1000	green_circle
None	0	2000	blue_triangle
None	0	1000	green_square
space	386	2500	red_square
None	0	2000	green_square
None	0	2000	red_star
space	427	2000	red_square
None	0	2000	yellow_star
None	0	1000	green_star
None	0	2000	yellow_star
None	0	1500	green_square
space	387	2500	red_square
None	0	2000	blue_triangle
None	0	1000	blue_square
space	363	1000	red_square
space	434	1500	red_square
space	259	2500	red_square
None	0	2500	red_circle
None	0	1500	green_circle
None	0	1500	blue_star
None	0	2500	blue_star
space	279	2000	red_square
space	374	1500	red_square
space	360	1500	red_square
None	0	1500	blue_star
None	0	2000	green_circle
None	0	1000	red_triangle
None	0	2500	blue_square
space	379	1000	red_square
None	0	1500	yellow_star
space	355	2000	red_square
None	0	2000	red_star
None	0	2500	yellow_triangle
space	308	1500	red_square
space	397	2500	red_square
space	367	2500	red_square
None	0	2500	yellow_star
space	438	2000	red_square
None	0	1500	yellow_star
None	0	2500	blue_triangle
None	0	1500	red_star
None	0	1500	green_star
None	0	2000	blue_circle
None	0	2500	green_circle
space	324	2000	red_square
None	0	1000	red_triangle
None	0	2500	green_circle
None	0	2500	yellow_triangle
None	0	1500	yellow_square
None	0	2000	red_star
None	0	1500	yellow_square
space	380	1500	red_square
None	0	1500	blue_star
space	479	2500	red_square
None	0	1000	yellow_square
None	0	1500	green_triangle
None	0	2500	green_square
None	0	1500	red_triangle
None	0	1000	blue_circle
None	0	2500	red_triangle
None	0	1500	blue_star
None	0	1000	red_triangle
None	0	1000	red_circle
None	0	2500	blue_triangle
space	363	2500	red_square
None	0	1000	yellow_circle
space	324	1000	red_square
None	0	2000	green_square
None	0	2500	green_triangle
space	356	1000	red_square
None	0	2000	yellow_circle
None	0	2500	yellow_square
None	0	2500	yellow_circle
space	446	2000	red_square
None	0	2000	blue_square
None	0	1000	blue_triangle
None	0	1500	yellow_square
None	0	1000	yellow_circle
None	0	2000	red_star
None	0	2000	red_triangle
None	0	2000	yellow_triangle
space	428	2000	red_square
None	0	2500	red_triangle
None	0	2500	green_triangle
space	470	2500	red_square
None	0	2000	red_star
None	0	1000	green_square
None	0	1500	red_triangle
None	0	2000	yellow_square
None	0	2000	green_square
None	0	1500	red_star
None	0	1000	blue_triangle
None	0	2500	green_square
None	0	2000	green_star
space	561	2500	red_square
None	0	2000	red_triangle
None	0	2000	blue_triangle
None	0	1500	green_circle
None	0	2500	yellow_star
None	0	1500	blue_circle
None	0	2500	green_star
None	0	1000	blue_circle
None	0	1500	green_star
None	0	2500	red_circle
None	0	2500	red_circle
space	369	1000	red_square
space	519	1500	red_square
space	360	2000	red_square
space	320	2500	red_square
None	0	2000	red_star
None	0	2500	blue_star
None	0	1000	red_triangle
None	0	1000	yellow_triangle
None	0	2000	blue_square
None	0	1500	blue_square
space	474	1500	red_square
space	339	2000	red_square
None	0	1000	blue_triangle
None	0	2500	green_triangle
space	395	2500	red_square
None	0	2000	yellow_triangle
None	0	2500	blue_circle
None	0	1500	blue_square
None	0	2500	red_triangle
None	0	1000	blue_square
None	0	1500	blue_square
space	406	2500	red_square
space	375	2000	red_square
space	311	1500	red_square
space	296	2000	red_triangle
space	616	2000	red_square
None	0	1000	yellow_square
None	0	1500	blue_square
space	448	1000	red_square
space	399	1500	red_square
None	0	2000	yellow_circle
None	0	2500	yellow_triangle
space	353	1500	red_square
None	0	2500	red_star
None	0	2500	yellow_square
space	350	2000	red_square
None	0	1500	yellow_square
space	415	1500	red_square
None	0	1000	blue_star
None	0	1000	blue_triangle
None	0	2000	green_triangle
None	0	1500	yellow_square
None	0	1000	red_star
None	0	1500	blue_square
None	0	2500	yellow_triangle
None	0	1000	green_circle
None	0	2000	red_star
None	0	1500	red_circle
space	395	2000	red_square
space	466	1000	red_square
None	0	2500	red_circle
space	363	1500	red_square
None	0	1000	blue_triangle
None	0	2000	blue_star
space	395	1500	red_triangle
space	412	1000	red_square
None	0	2000	green_triangle
None	0	1000	red_circle
None	0	2500	blue_star
space	388	1000	red_square
space	443	1500	red_square
None	0	2000	yellow_star
None	0	2500	red_star
space	350	2500	red_square
space	304	2000	red_square
None	0	2000	green_square
space	511	1000	red_square
None	0	2500	yellow_triangle
None	0	1000	blue_circle
space	395	1000	red_square
space	394	2000	red_square
None	0	1500	green_circle
None	0	2500	yellow_square
None	0	2500	blue_square
space	406	2000	red_square
space	382	1000	red_square
None	0	1000	yellow_square
None	0	2500	green_square
None	0	1000	green_star
space	389	1000	red_square
None	0	2000	blue_circle
space	396	2000	red_square
None	0	2000	yellow_triangle
None	0	1500	blue_circle
None	0	1000	yellow_square
None	0	1000	yellow_circle
space	371	1500	red_square
space	413	1000	red_square
space	332	1500	red_square
None	0	2000	green_star
space	373	2500	red_square
None	0	1000	red_star
None	0	1500	yellow_star
None	0	2500	green_circle
None	0	2500	red_circle
None	0	2500	blue_square
space	372	1000	red_square
None	0	2000	red_star
None	0	2000	red_circle
None	0	2500	green_square
space	387	2500	red_square
None	0	2500	blue_square
None	0	1500	yellow_circle
None	0	2000	green_triangle
space	420	1500	red_square
None	0	1000	green_star
space	440	1000	red_square
None	0	1500	red_circle
space	521	2000	red_square
