response	response_time	trial_ISI	trial_shape
None	0	2000	blue_square
None	0	2000	green_triangle
space	302	1000	red_square
space	389	1000	red_square
space	341	1500	red_square
None	0	1000	green_square
None	0	1500	yellow_star
None	0	2500	yellow_triangle
space	313	2000	red_square
space	289	1000	red_square
None	0	1000	red_star
None	0	2500	yellow_circle
None	0	2000	red_star
space	320	2500	red_square
None	0	1500	blue_triangle
None	0	2000	red_triangle
None	0	2500	red_star
None	0	2000	yellow_star
None	0	2000	blue_square
None	0	1500	red_star
None	0	1000	blue_star
None	0	2000	red_triangle
None	0	1500	yellow_square
space	358	1000	red_square
None	0	1000	blue_circle
space	364	1500	red_square
None	0	2500	yellow_star
None	0	1500	red_star
None	0	1500	green_square
None	0	1000	blue_square
space	401	1500	red_square
space	338	2500	red_square
None	0	2500	red_circle
None	0	2000	red_star
space	401	2000	red_square
None	0	1000	green_circle
None	0	1000	yellow_star
None	0	1500	yellow_square
None	0	2500	red_triangle
None	0	1500	green_circle
None	0	2000	blue_square
space	503	1500	red_square
space	297	1500	red_square
None	0	2000	red_circle
None	0	1000	red_star
None	0	1500	yellow_triangle
None	0	2000	blue_star
None	0	1000	blue_triangle
None	0	2000	green_star
space	360	2500	red_square
None	0	1000	green_circle
space	401	2500	red_square
space	474	2500	red_square
None	0	2500	red_star
None	0	2000	green_triangle
None	0	1500	green_circle
None	0	2000	blue_triangle
None	0	2500	green_triangle
None	0	2500	yellow_square
None	0	1000	red_circle
None	0	2000	yellow_square
space	436	1000	red_square
None	0	2000	yellow_triangle
None	0	1500	red_circle
None	0	2000	yellow_triangle
None	0	2500	blue_circle
None	0	1500	blue_square
None	0	1000	yellow_circle
None	0	1500	blue_star
None	0	2500	blue_circle
None	0	2500	blue_square
None	0	2500	blue_square
None	0	2500	yellow_star
None	0	2000	blue_circle
None	0	2000	yellow_star
None	0	1500	blue_triangle
None	0	2000	red_triangle
None	0	1500	green_triangle
space	399	1000	red_square
None	0	2000	yellow_square
space	453	2000	red_square
None	0	1000	yellow_square
space	476	2500	red_square
None	0	1000	red_triangle
space	425	2000	red_square
None	0	2500	green_star
space	399	1000	red_square
None	0	1500	yellow_square
None	0	2500	red_star
None	0	1000	blue_square
None	0	2500	yellow_square
space	367	2500	red_square
space	412	1500	red_square
None	0	2500	red_triangle
None	0	2000	green_square
None	0	2500	green_square
None	0	2000	yellow_triangle
space	360	1500	red_square
None	0	1500	red_circle
None	0	1500	blue_star
space	520	1500	red_square
None	0	2500	red_circle
space	506	1500	red_square
space	500	1500	red_square
None	0	2500	blue_triangle
None	0	2500	blue_triangle
None	0	2500	red_triangle
None	0	2500	red_triangle
space	356	1000	red_square
None	0	1500	red_triangle
None	0	1500	green_square
None	0	2000	red_triangle
space	445	1500	red_square
None	0	1000	red_circle
None	0	2000	yellow_square
None	0	1500	green_star
space	351	1500	red_square
None	0	1500	blue_square
None	0	1500	green_star
None	0	2500	yellow_triangle
None	0	1500	green_square
None	0	1000	yellow_square
space	609	1000	red_square
space	432	1000	red_square
None	0	1000	blue_circle
None	0	2000	red_circle
None	0	1500	red_circle
None	0	1000	green_square
None	0	2000	red_triangle
space	383	1500	red_square
None	0	2500	green_circle
None	0	2000	yellow_circle
None	0	1000	green_square
space	464	1500	red_square
None	0	1500	blue_circle
None	0	2500	yellow_circle
space	381	1000	red_square
space	388	1000	red_square
None	0	2500	green_square
None	0	1000	blue_star
space	477	1500	red_square
None	0	1000	red_circle
space	421	2500	red_square
None	0	1000	green_triangle
space	334	1000	red_square
space	445	2000	red_square
None	0	2000	green_circle
None	0	1000	red_circle
None	0	2500	green_square
None	0	1000	blue_square
space	453	2500	red_square
None	0	1000	yellow_square
space	497	1500	red_square
None	0	1500	yellow_square
None	0	1000	blue_square
space	387	1000	red_square
None	0	1500	green_star
None	0	2500	green_triangle
None	0	2000	red_circle
space	454	2500	red_square
None	0	2000	green_square
None	0	1500	green_triangle
space	405	2500	red_square
space	430	2000	red_square
None	0	1000	green_circle
space	476	2000	red_square
None	0	2500	red_star
None	0	2500	red_circle
None	0	1000	green_star
None	0	1000	green_square
None	0	1500	red_circle
space	511	2000	red_square
None	0	2500	yellow_star
None	0	2000	red_triangle
space	495	1000	red_square
None	0	1000	green_circle
None	0	1500	blue_square
None	0	2500	yellow_triangle
None	0	1000	yellow_circle
None	0	2500	yellow_star
None	0	1500	red_triangle
None	0	1000	red_star
None	0	2000	blue_square
space	398	2500	red_square
None	0	2500	green_star
None	0	2500	red_star
space	411	1000	red_square
space	442	1000	red_square
space	474	2500	red_square
None	0	1500	green_circle
None	0	1000	yellow_circle
None	0	2000	blue_star
space	435	2000	red_square
None	0	2500	blue_circle
None	0	1000	blue_square
space	436	2000	red_square
None	0	2500	green_star
None	0	2000	green_triangle
None	0	1500	red_triangle
space	370	2500	red_square
space	356	1000	red_square
None	0	2500	red_circle
None	0	2000	yellow_square
space	532	1500	red_square
None	0	2000	green_square
space	349	2000	red_square
space	372	2500	red_square
None	0	1000	yellow_square
space	541	1500	red_square
None	0	1500	yellow_square
None	0	2000	yellow_star
None	0	2500	yellow_square
space	365	2000	red_square
space	333	1000	red_square
None	0	2000	red_triangle
space	379	1500	red_square
None	0	1500	blue_circle
space	459	2000	red_square
None	0	1500	blue_triangle
None	0	1000	blue_square
None	0	2500	blue_star
None	0	2000	green_square
None	0	2000	yellow_triangle
None	0	2000	red_star
None	0	1000	yellow_circle
None	0	2500	blue_circle
None	0	2500	red_star
None	0	2000	green_triangle
space	489	2000	red_square
None	0	1500	blue_triangle
space	498	2000	red_square
None	0	1000	blue_square
None	0	1000	yellow_square
None	0	2500	green_star
None	0	2000	green_triangle
None	0	2000	red_triangle
None	0	2500	green_triangle
None	0	2500	yellow_circle
None	0	2500	green_square
None	0	1000	yellow_star
None	0	2000	yellow_triangle
space	356	2000	red_square
None	0	1000	blue_star
None	0	1000	green_square
space	506	1500	red_square
space	339	2500	red_square
None	0	2500	red_star
space	551	1000	red_square
space	518	2500	red_square
space	503	2000	red_square
space	511	1500	red_square
None	0	2000	red_star
None	0	2000	red_circle
space	479	2000	red_square
None	0	1000	blue_star
space	399	1500	red_square
None	0	2500	red_circle
None	0	2000	yellow_square
None	0	1000	yellow_circle
None	0	2000	yellow_circle
None	0	1000	blue_triangle
None	0	1000	green_triangle
space	450	2000	red_square
None	0	1500	blue_circle
None	0	1500	yellow_triangle
None	0	2500	blue_star
None	0	2500	green_square
None	0	2500	green_circle
space	486	2000	red_square
None	0	1000	blue_star
None	0	1500	red_star
None	0	2000	blue_square
None	0	2000	yellow_circle
None	0	1500	yellow_circle
None	0	1500	red_triangle
None	0	2500	yellow_triangle
None	0	2000	yellow_triangle
space	580	1500	red_square
None	0	2500	green_circle
None	0	1000	red_star
None	0	2500	blue_triangle
space	400	1500	red_square
None	0	1000	red_circle
space	492	1500	red_square
space	534	2500	red_square
None	0	1000	blue_triangle
space	431	2000	red_square
None	0	1000	green_star
None	0	2000	red_triangle
None	0	1000	red_star
space	500	2500	red_square
space	458	1000	red_square
space	425	1000	red_square
None	0	1000	green_circle
None	0	2500	blue_circle
None	0	1500	red_circle
space	571	1000	red_square
space	451	1500	red_square
None	0	1500	blue_circle
None	0	2000	blue_triangle
None	0	1500	green_circle
space	518	1500	red_square
space	398	1500	red_square
None	0	1000	blue_star
None	0	2500	blue_triangle
None	0	1000	green_square
None	0	1500	blue_square
None	0	2500	yellow_star
space	524	2000	red_square
None	0	1500	green_star
None	0	1500	yellow_square
None	0	1000	blue_star
space	533	1500	red_square
None	0	1500	green_star
space	448	2000	red_square
space	455	2000	red_square
None	0	2500	blue_square
None	0	1500	yellow_star
space	513	2500	red_square
None	0	2000	green_triangle
