response	response_time	trial_ISI	trial_shape
None	0	2000	green_triangle
space	406	2500	red_square
None	0	1500	blue_triangle
None	0	2500	green_circle
None	0	2500	red_star
None	0	1500	red_star
space	318	1000	red_square
None	0	2000	green_square
None	0	2500	blue_triangle
None	0	1500	blue_triangle
space	328	2500	red_square
None	0	2000	green_square
space	401	1500	red_square
space	362	1000	red_square
None	0	2500	red_star
None	0	1500	red_triangle
space	428	1500	red_square
None	0	2500	red_star
space	331	2500	red_square
None	0	1500	green_circle
space	294	1500	red_square
None	0	2000	yellow_square
space	311	2500	red_triangle
space	285	1000	red_circle
None	0	2500	red_circle
None	0	2500	red_star
None	0	1000	yellow_circle
None	0	2500	yellow_circle
space	380	2000	red_square
space	451	2500	red_square
None	0	2000	blue_circle
space	405	2000	red_square
None	0	1000	green_square
None	0	2000	yellow_circle
None	0	1000	blue_square
None	0	2500	blue_square
space	453	1000	red_square
space	308	2500	red_square
space	365	2000	red_square
None	0	2000	green_square
space	453	2000	red_square
space	396	2000	red_square
None	0	1000	blue_circle
space	427	1500	red_square
space	436	1000	red_square
None	0	2500	red_triangle
space	437	1500	red_square
None	0	1500	green_circle
None	0	2500	red_triangle
None	0	2000	red_star
space	386	2000	red_square
None	0	1000	red_circle
space	408	1500	red_square
None	0	2500	blue_star
None	0	1000	red_triangle
space	330	1500	red_square
None	0	2000	red_star
space	388	1500	red_square
space	445	2500	red_square
None	0	2500	yellow_triangle
None	0	1500	blue_circle
None	0	1500	yellow_star
space	428	1000	red_square
None	0	2500	yellow_square
space	356	1000	red_square
None	0	1500	yellow_square
None	0	2000	blue_star
None	0	1000	green_square
space	436	2500	red_square
None	0	2000	blue_circle
None	0	2000	blue_square
None	0	1000	red_triangle
None	0	2000	yellow_square
None	0	2000	yellow_triangle
None	0	2500	blue_star
space	322	2000	blue_square
None	0	1500	green_square
None	0	1500	blue_triangle
None	0	1500	yellow_square
None	0	2000	green_triangle
None	0	1000	red_circle
space	428	2500	red_square
None	0	1000	red_star
None	0	2500	blue_star
space	467	1500	red_square
None	0	2000	blue_circle
space	432	2000	red_square
space	393	1500	red_square
None	0	2000	yellow_triangle
None	0	1000	red_circle
space	448	1500	red_square
None	0	2000	red_triangle
None	0	2000	green_triangle
None	0	1000	red_triangle
space	416	1000	red_square
space	447	1500	red_square
None	0	1500	green_star
space	435	1000	red_square
None	0	1000	yellow_star
None	0	1000	blue_star
None	0	2000	red_star
None	0	2000	red_circle
None	0	1000	green_triangle
None	0	2500	green_star
space	477	1500	red_square
None	0	2000	blue_circle
None	0	1500	red_star
None	0	2000	blue_square
None	0	2000	yellow_triangle
space	422	1000	red_square
None	0	2500	yellow_square
None	0	1500	green_circle
space	384	2500	red_square
None	0	1500	green_star
None	0	2500	yellow_square
None	0	1500	red_circle
None	0	1000	blue_square
space	338	2000	red_square
None	0	1000	yellow_square
None	0	2500	blue_star
None	0	1000	blue_square
None	0	1000	blue_triangle
space	413	2500	red_square
None	0	2000	yellow_star
None	0	1000	green_square
None	0	2500	red_star
space	415	1000	red_square
None	0	2500	blue_star
None	0	2500	red_star
None	0	1000	yellow_star
space	509	1000	red_square
space	428	1500	red_square
None	0	2500	yellow_star
space	414	2000	red_square
space	395	2500	red_square
None	0	2000	yellow_square
None	0	2000	red_triangle
None	0	2000	blue_square
space	436	1500	red_square
None	0	1500	green_triangle
None	0	2500	blue_triangle
None	0	1000	yellow_triangle
None	0	1500	yellow_triangle
None	0	1500	green_circle
None	0	2500	green_circle
None	0	1500	yellow_circle
None	0	2000	green_star
None	0	1500	green_star
None	0	2000	yellow_star
None	0	1000	green_triangle
None	0	2500	blue_star
None	0	1500	red_circle
None	0	2000	blue_square
None	0	1000	yellow_circle
None	0	1500	blue_triangle
space	384	2000	red_square
space	392	2500	red_square
None	0	2000	yellow_square
None	0	1000	blue_square
space	392	2000	red_square
None	0	1000	red_star
None	0	1000	red_triangle
None	0	2500	blue_circle
space	376	2000	red_square
space	399	2500	red_square
None	0	1000	red_circle
space	520	2000	red_square
None	0	2000	red_star
None	0	2000	red_circle
None	0	1000	yellow_square
None	0	1000	blue_triangle
None	0	2500	blue_square
space	389	1000	red_square
None	0	1000	yellow_star
None	0	1500	red_triangle
space	284	2000	green_square
None	0	1000	blue_square
None	0	1000	red_circle
space	330	2000	red_square
None	0	2500	yellow_circle
None	0	1500	green_star
None	0	1500	blue_square
space	466	2000	red_square
None	0	2000	blue_triangle
space	441	1500	red_square
None	0	2500	blue_star
None	0	2000	green_square
space	427	2500	red_square
None	0	1500	blue_triangle
space	414	2500	red_square
None	0	2500	green_square
space	418	1000	red_square
None	0	1000	blue_triangle
space	480	1000	red_square
None	0	1000	green_square
None	0	1500	blue_square
None	0	2000	yellow_circle
None	0	1500	yellow_circle
None	0	1500	yellow_star
space	408	1500	red_square
space	317	2000	red_square
None	0	1000	blue_star
None	0	2000	red_circle
None	0	2500	green_star
None	0	2000	red_circle
space	365	1500	red_square
None	0	2000	green_square
space	397	1000	red_square
space	511	2500	red_square
None	0	2000	yellow_square
None	0	2500	red_triangle
None	0	2000	green_square
None	0	1500	green_triangle
None	0	1000	yellow_star
None	0	2000	red_star
None	0	2500	green_circle
space	390	1000	red_square
space	397	2000	red_square
None	0	1500	green_square
None	0	1500	red_circle
None	0	1500	red_star
space	385	2500	red_square
space	386	1500	red_square
space	555	2500	red_square
None	0	1000	yellow_square
None	0	1000	green_triangle
space	488	2500	red_square
None	0	1500	blue_circle
None	0	1000	green_star
None	0	1500	green_star
None	0	2000	green_triangle
None	0	2000	yellow_star
None	0	2500	green_circle
space	470	1500	red_square
space	383	2000	red_square
None	0	2000	blue_square
None	0	2500	yellow_star
None	0	1000	green_circle
None	0	1500	yellow_square
None	0	2000	green_circle
None	0	1500	red_star
None	0	1000	red_triangle
space	334	1500	red_square
space	407	2000	red_square
None	0	1000	green_square
None	0	1500	yellow_triangle
None	0	2500	green_triangle
space	481	2000	red_square
space	352	1000	red_square
None	0	2500	red_triangle
None	0	1500	red_star
space	486	2000	red_square
None	0	1500	blue_circle
None	0	2500	red_triangle
None	0	2500	yellow_square
space	419	1000	red_square
None	0	1500	yellow_circle
None	0	1500	green_square
None	0	2000	yellow_triangle
space	525	1000	red_square
space	388	1000	red_square
None	0	1000	blue_circle
None	0	1000	green_star
None	0	1000	green_square
None	0	1500	green_triangle
None	0	2000	green_circle
None	0	2500	green_square
None	0	2500	blue_square
space	510	2500	red_square
None	0	2500	green_triangle
space	381	1000	red_square
None	0	1000	yellow_square
None	0	2000	blue_square
None	0	1500	yellow_square
space	381	1000	red_square
None	0	1000	red_star
space	420	2500	red_square
None	0	1500	yellow_triangle
None	0	2500	red_triangle
None	0	1500	yellow_triangle
None	0	2000	blue_square
space	357	1500	red_square
space	382	1500	red_square
space	391	2500	red_square
None	0	1500	red_triangle
space	419	2000	red_square
None	0	1500	yellow_triangle
None	0	1500	blue_star
None	0	2000	yellow_circle
None	0	1000	green_circle
None	0	1000	blue_square
None	0	1500	blue_triangle
None	0	1500	blue_circle
space	386	2500	red_square
None	0	1000	red_triangle
space	448	1500	red_square
None	0	2000	green_star
None	0	2000	red_circle
space	444	2000	red_square
None	0	2500	red_circle
space	416	2500	red_square
None	0	2500	yellow_circle
space	425	2500	red_square
space	510	1000	red_square
None	0	1500	blue_triangle
None	0	2500	red_circle
None	0	2500	blue_circle
None	0	1000	yellow_circle
space	346	1000	red_square
None	0	1000	yellow_triangle
None	0	1500	red_circle
None	0	2500	green_triangle
None	0	2500	yellow_star
None	0	1500	blue_star
None	0	1000	yellow_square
None	0	2000	red_circle
None	0	1000	yellow_square
None	0	2500	green_circle
None	0	2500	green_star
None	0	2500	blue_star
